time,seconds_elapsed,z,y,x
1776870177133526300,0.0885263671875,-107.52229309082031,61.862274169921875,-88.52874755859375
1776870177143611400,0.098611328125,-106.32449340820312,62.44206237792969,-87.35911560058594
1776870177153697500,0.108697509765625,-107.08900451660156,62.22703552246094,-88.07896423339844
1776870177163782400,0.118782470703125,-107.76040649414062,62.2999267578125,-88.18013000488281
1776870177173867500,0.128867431640625,-107.20220947265625,62.41246032714844,-87.1329345703125
1776870177183951400,0.138951416015625,-106.98944091796875,62.58998107910156,-86.67323303222656
1776870177194036500,0.149036376953125,-109.53477478027344,62.49766540527344,-88.32435607910156
1776870177204122400,0.159122314453125,-107.59721374511719,62.83500671386719,-85.82719421386719
1776870177214208300,0.169208251953125,-106.35745239257812,62.93934631347656,-84.1566162109375
1776870177224294400,0.17929443359375,-108.93867492675781,62.64677429199219,-85.1273193359375
1776870177234380500,0.189380615234375,-108.54469299316406,62.84483337402344,-83.59429931640625
1776870177244463400,0.19946337890625,-109.06956481933594,62.78700256347656,-82.42631530761719
1776870177254547500,0.20954736328125,-108.51229858398438,62.88475036621094,-80.78575134277344
1776870177264633300,0.21963330078125,-108.37364196777344,62.78501892089844,-79.40373229980469
1776870177274718200,0.22971826171875,-109.06890869140625,62.38946533203125,-78.75300598144531
1776870177284802600,0.239802490234375,-109.7711181640625,62.26060485839844,-78.2176513671875
1776870177294887400,0.249887451171875,-110.06283569335938,62.25209045410156,-77.01072692871094
1776870177304972300,0.25997216796875,-110.5980224609375,62.126922607421875,-76.16429138183594
1776870177315058400,0.270058349609375,-111.97682189941406,62.28450012207031,-75.74629211425781
1776870177325143300,0.280143310546875,-111.84486389160156,62.40629577636719,-74.19158935546875
1776870177335227400,0.290227294921875,-112.6783447265625,62.88053894042969,-73.82325744628906
1776870177345313300,0.300313232421875,-112.09941101074219,63.88151550292969,-71.998779296875
1776870177355398400,0.3103984375,-112.41798400878906,64.59689331054688,-71.05189514160156
1776870177365482200,0.320482177734375,-112.49293518066406,65.50265502929688,-69.86982727050781
1776870177375567400,0.3305673828125,-113.07099914550781,66.46417236328125,-68.60275268554688
1776870177385651500,0.3406513671875,-114.85337829589844,67.0247802734375,-68.65641784667969
1776870177395736600,0.350736572265625,-112.79931640625,67.82516479492188,-65.40380859375
1776870177405820400,0.3608203125,-111.99899291992188,68.45222473144531,-62.72430419921875
1776870177415904300,0.370904296875,-112.42161560058594,68.73208618164062,-61.48094177246094
1776870177425988400,0.38098828125,-111.83729553222656,69.30442810058594,-59.917999267578125
1776870177436073200,0.3910732421875,-112.46640014648438,69.04734802246094,-59.171966552734375
1776870177446158300,0.401158447265625,-111.73036193847656,69.13705444335938,-58.30113220214844
1776870177456244500,0.411244384765625,-111.75642395019531,68.60989379882812,-57.81463623046875
1776870177466330400,0.421330322265625,-111.91836547851562,68.62113952636719,-57.58827209472656
1776870177476415500,0.43141552734375,-111.84938049316406,68.42073059082031,-57.14680480957031
1776870177486500400,0.441500244140625,-112.28242492675781,67.7733154296875,-57.080780029296875
1776870177496583400,0.45158349609375,-111.36044311523438,68.12542724609375,-56.36882019042969
1776870177506666500,0.46166650390625,-111.66230773925781,67.91275024414062,-56.27349853515625
1776870177516749300,0.471749267578125,-112.01539611816406,67.88375854492188,-56.43360900878906
1776870177526831400,0.481831298828125,-110.80690002441406,67.86155700683594,-55.621795654296875
1776870177536915200,0.491915283203125,-111.26901245117188,67.83389282226562,-55.83836364746094
1776870177546999600,0.50199951171875,-111.22642517089844,67.76742553710938,-55.64967346191406
1776870177557083400,0.51208349609375,-110.8311767578125,67.43502807617188,-55.597625732421875
1776870177567168500,0.52216845703125,-111.23091125488281,67.08412170410156,-55.64306640625
1776870177577253400,0.53225341796875,-111.07037353515625,66.80166625976562,-55.21226501464844
1776870177587338500,0.54233837890625,-110.717529296875,66.19462585449219,-54.80830383300781
1776870177597423400,0.55242333984375,-110.96539306640625,65.82485961914062,-54.729248046875
1776870177607507500,0.562507568359375,-110.83625793457031,65.57292175292969,-54.693267822265625
1776870177617589500,0.572589599609375,-110.76530456542969,65.53802490234375,-54.7529296875
1776870177627674400,0.58267431640625,-110.74809265136719,65.23617553710938,-54.922393798828125
1776870177637758500,0.592758544921875,-110.5867919921875,65.58175659179688,-54.739715576171875
1776870177647843300,0.60284326171875,-111.06498718261719,65.81585693359375,-55.30427551269531
1776870177657928400,0.612928466796875,-110.88218688964844,66.342041015625,-55.12689208984375
1776870177668014300,0.623014404296875,-111.21156311035156,66.43551635742188,-55.206756591796875
1776870177678098400,0.633098388671875,-111.11546325683594,66.61444091796875,-55.216949462890625
1776870177688183300,0.643183349609375,-110.9093017578125,66.88047790527344,-54.81407165527344
1776870177698268400,0.653268310546875,-110.96583557128906,67.50773620605469,-54.21495056152344
1776870177708354600,0.6633544921875,-110.40589904785156,68.07504272460938,-53.05033874511719
1776870177718440200,0.673440185546875,-110.90669250488281,68.52323913574219,-52.96336364746094
1776870177728526300,0.6835263671875,-110.37336730957031,69.04380798339844,-52.11482238769531
1776870177738612500,0.693612548828125,-109.8345947265625,69.55766296386719,-51.16680908203125
1776870177748696300,0.7036962890625,-109.69157409667969,70.13082885742188,-50.92546081542969
1776870177758781400,0.713781494140625,-109.81446838378906,70.55250549316406,-50.549407958984375
1776870177768866300,0.7238662109375,-109.50511169433594,71.03797912597656,-50.30116271972656
1776870177778952400,0.733952392578125,-109.11196899414062,71.59870910644531,-49.89671325683594
1776870177789038300,0.744038330078125,-109.0509033203125,72.50364685058594,-49.71528625488281
1776870177799124500,0.75412451171875,-108.13436889648438,73.1461181640625,-49.450836181640625
1776870177809211400,0.76421142578125,-108.50860595703125,74.13128662109375,-49.707672119140625
1776870177819298300,0.77429833984375,-108.50440979003906,75.08283996582031,-49.92561340332031
1776870177829384400,0.784384521484375,-108.91787719726562,76.11056518554688,-50.723297119140625
1776870177839470300,0.79447021484375,-108.33399963378906,77.04570007324219,-50.709228515625
1776870177849557500,0.8045576171875,-107.39114379882812,78.68173217773438,-50.352203369140625
1776870177859642400,0.814642333984375,-107.32949829101562,79.46310424804688,-50.75689697265625
1776870177869727500,0.8247275390625,-106.98609924316406,80.95599365234375,-50.86268615722656
1776870177879813400,0.8348134765625,-106.38935852050781,81.84449768066406,-50.9671630859375
1776870177889897200,0.844897216796875,-106.83062744140625,82.96534729003906,-51.93586730957031
1776870177899984100,0.854984130859375,-105.66531372070312,84.02479553222656,-52.04438781738281
1776870177910070000,0.865070068359375,-105.938232421875,85.18829345703125,-53.003143310546875
1776870177920156000,0.875156005859375,-105.53306579589844,86.36260986328125,-53.4586181640625
1776870177930242000,0.885241943359375,-104.33296203613281,87.5989990234375,-53.46177673339844
1776870177940328200,0.895328125,-103.61776733398438,89.188232421875,-54.011932373046875
1776870177950414800,0.905414794921875,-103.6864013671875,90.13143920898438,-54.917022705078125
1776870177960502000,0.915501953125,-102.73567199707031,91.33291625976562,-55.754638671875
1776870177970588000,0.925587890625,-102.81729125976562,92.18946838378906,-57.27082824707031
1776870177980674000,0.935674072265625,-102.26585388183594,93.60261535644531,-58.1143798828125
1776870177990760200,0.94576025390625,-101.25932312011719,94.49559020996094,-58.84466552734375
1776870178000845000,0.955844970703125,-100.3873291015625,95.32626342773438,-59.42109680175781
1776870178010930200,0.96593017578125,-99.53955078125,96.44268798828125,-60.24980163574219
1776870178021017000,0.97601708984375,-99.29644775390625,97.37446594238281,-60.98797607421875
1776870178031102000,0.98610205078125,-98.27749633789062,98.536865234375,-61.848907470703125
1776870178041186000,0.99618603515625,-96.81611633300781,99.50454711914062,-61.956085205078125
1776870178051269000,1.00626904296875,-95.88520812988281,100.29917907714844,-62.290985107421875
1776870178061353000,1.01635302734375,-94.32345581054688,101.27410888671875,-61.97407531738281
1776870178071437000,1.02643701171875,-93.39494323730469,102.16722106933594,-62.30206298828125
1776870178081521200,1.036521240234375,-91.86412048339844,102.79624938964844,-61.746917724609375
1776870178091605000,1.04660498046875,-90.13160705566406,103.69378662109375,-61.262786865234375
1776870178101690000,1.056690185546875,-88.92762756347656,104.16204833984375,-60.227569580078125
1776870178111774000,1.06677392578125,-87.57948303222656,104.54852294921875,-59.548004150390625
1776870178121860000,1.076860107421875,-86.88421630859375,104.79144287109375,-58.63972473144531
1776870178131944000,1.08694384765625,-85.37028503417969,104.87187194824219,-57.34938049316406
1776870178142030000,1.097030029296875,-84.51919555664062,105.06266784667969,-56.06132507324219
1776870178152117000,1.107116943359375,-83.69612121582031,104.7177734375,-55.04302978515625
1776870178162204000,1.117203857421875,-83.62899780273438,104.35479736328125,-53.89619445800781
1776870178172290000,1.1272900390625,-82.96505737304688,104.30964660644531,-52.9375
1776870178182377200,1.137377197265625,-83.6258544921875,103.96189880371094,-52.30712890625
1776870178192462800,1.147462890625,-83.60551452636719,103.89057922363281,-51.71018981933594
1776870178202548000,1.1575478515625,-84.25448608398438,103.65739440917969,-51.708160400390625
1776870178212632000,1.167632080078125,-84.44886779785156,103.57034301757812,-51.2103271484375
1776870178222718000,1.177718017578125,-84.608642578125,103.26850891113281,-50.99806213378906
1776870178232804000,1.18780419921875,-86.03076171875,103.01840209960938,-51.52159118652344
1776870178242888000,1.197887939453125,-85.65489196777344,103.03077697753906,-50.95249938964844
1776870178252974000,1.20797412109375,-84.75596618652344,102.89775085449219,-50.30314636230469
1776870178263059000,1.218058837890625,-84.97988891601562,102.79524230957031,-49.964447021484375
1776870178273145000,1.22814501953125,-84.61076354980469,102.57284545898438,-49.10673522949219
1776870178283230000,1.23822998046875,-85.1202392578125,102.26219177246094,-48.98631286621094
1776870178293315800,1.24831591796875,-85.01071166992188,101.87010192871094,-48.22721862792969
1776870178303403000,1.258403076171875,-85.45668029785156,101.87544250488281,-47.71208190917969
1776870178313490000,1.268489990234375,-85.75567626953125,101.10513305664062,-47.281036376953125
1776870178323576800,1.278576904296875,-85.93287658691406,101.10221862792969,-46.780364990234375
1776870178333663000,1.2886630859375,-86.04446411132812,100.78926086425781,-46.32508850097656
1776870178343750000,1.29875,-86.59242248535156,100.32614135742188,-46.29475402832031
1776870178353837000,1.308837158203125,-86.64753723144531,100.19694519042969,-45.82810974121094
1776870178363924000,1.318924072265625,-87.00146484375,99.63819885253906,-45.430023193359375
1776870178374011100,1.32901123046875,-86.65037536621094,99.69033813476562,-44.649627685546875
1776870178384096000,1.339095947265625,-86.678466796875,99.64292907714844,-44.578155517578125
1776870178394182000,1.349181884765625,-87.05117797851562,99.45367431640625,-44.649505615234375
1776870178404267000,1.35926708984375,-87.14289855957031,99.42445373535156,-44.707000732421875
1776870178414353000,1.369352783203125,-87.22105407714844,99.47001647949219,-45.22572326660156
1776870178424439000,1.37943896484375,-86.78509521484375,99.68084716796875,-45.136016845703125
1776870178434525000,1.38952490234375,-86.67477416992188,99.66412353515625,-45.085662841796875
1776870178444611000,1.399611083984375,-86.51446533203125,99.81474304199219,-45.22357177734375
1776870178454698000,1.409697998046875,-86.73690795898438,99.73049926757812,-45.16651916503906
1776870178464782800,1.419782958984375,-85.99714660644531,99.78961181640625,-45.040863037109375
1776870178474869000,1.429868896484375,-86.01214599609375,99.98014831542969,-44.91285705566406
1776870178484952800,1.439952880859375,-85.87060546875,99.93136596679688,-44.73077392578125
1776870178495037200,1.450037109375,-85.76876831054688,99.85655212402344,-44.61283874511719
1776870178505122000,1.4601220703125,-86.03419494628906,99.79725646972656,-44.320068359375
1776870178515208000,1.4702080078125,-85.79586791992188,99.93046569824219,-44.168670654296875
1776870178525295000,1.480295166015625,-86.08804321289062,99.78837585449219,-44.223968505859375
1776870178535382000,1.490382080078125,-86.26469421386719,99.70124816894531,-44.249114990234375
1776870178545467000,1.500466796875,-86.40669250488281,99.61582946777344,-44.30476379394531
1776870178555552000,1.510552001953125,-87.13035583496094,99.51889038085938,-44.85394287109375
1776870178565638100,1.52063818359375,-87.10488891601562,99.3472900390625,-44.43719482421875
1776870178575723800,1.530723876953125,-86.85710144042969,99.20321655273438,-44.35868835449219
1776870178585809000,1.540808837890625,-87.32362365722656,99.33843994140625,-44.20216369628906
1776870178595894000,1.55089404296875,-87.38687133789062,99.090087890625,-43.99589538574219
1776870178605978000,1.56097802734375,-88.04646301269531,98.86827087402344,-44.104766845703125
1776870178616063200,1.571063232421875,-88.65602111816406,98.43646240234375,-44.027374267578125
1776870178626148000,1.581148193359375,-88.66665649414062,98.24226379394531,-43.63920593261719
1776870178636234000,1.59123388671875,-89.22970581054688,97.900146484375,-43.6590576171875
1776870178646318000,1.601318115234375,-89.63700866699219,97.5736083984375,-43.15324401855469
1776870178656402200,1.611402099609375,-90.65281677246094,97.24015808105469,-43.25550842285156
1776870178666485000,1.621485107421875,-91.97799682617188,96.70494079589844,-43.87940979003906
1776870178676569000,1.631569091796875,-91.56263732910156,96.30216979980469,-42.9461669921875
1776870178686654200,1.641654296875,-93.151611328125,95.90390014648438,-43.17741394042969
1776870178696738000,1.651738037109375,-94.19572448730469,95.21055603027344,-43.63633728027344
1776870178706824200,1.66182421875,-95.47421264648438,94.62750244140625,-43.6754150390625
1776870178716908000,1.671907958984375,-96.088134765625,94.10319519042969,-44.17146301269531
1776870178726993200,1.6819931640625,-97.47854614257812,93.56121826171875,-44.52241516113281
1776870178737078000,1.692078125,-98.48301696777344,92.95939636230469,-45.239715576171875
1776870178747164000,1.702163818359375,-98.74844360351562,92.40283203125,-44.88629150390625
1776870178757249000,1.7122490234375,-100.14358520507812,91.281005859375,-45.560516357421875
1776870178767334000,1.722333984375,-101.17724609375,90.63055419921875,-45.74659729003906
1776870178777419000,1.7324189453125,-101.60145568847656,90.01036071777344,-45.69206237792969
1776870178787503000,1.742503173828125,-102.66835021972656,89.35171508789062,-46.2021484375
1776870178797587000,1.7525869140625,-103.15406799316406,88.82133483886719,-46.16596984863281
1776870178807672000,1.762672119140625,-103.17936706542969,88.38612365722656,-45.74104309082031
1776870178817757000,1.7727568359375,-104.31781005859375,87.55117797851562,-46.59370422363281
1776870178827842000,1.782842041015625,-104.94645690917969,87.17082214355469,-47.120513916015625
1776870178837928000,1.792927978515625,-105.66546630859375,86.69023132324219,-47.59614562988281
1776870178848014000,1.80301416015625,-106.41160583496094,85.89456176757812,-48.28399658203125
1776870178858101000,1.81310107421875,-106.74436950683594,85.83712768554688,-48.9000244140625
1776870178868187000,1.823186767578125,-106.92398071289062,85.80918884277344,-49.272186279296875
1776870178878273000,1.83327294921875,-108.45599365234375,85.40692138671875,-51.196868896484375
1776870178888359200,1.843359130859375,-108.62513732910156,85.71098327636719,-52.08428955078125
1776870178898444300,1.8534443359375,-108.82810974121094,85.69161987304688,-53.63121032714844
1776870178908530200,1.8635302734375,-109.0953369140625,85.89714050292969,-54.331634521484375
1776870178918616000,1.873615966796875,-109.00732421875,86.17393493652344,-55.073150634765625
1776870178928702200,1.8837021484375,-108.90098571777344,86.9930419921875,-55.764923095703125
1776870178938788000,1.8937880859375,-108.717529296875,87.8612060546875,-57.17683410644531
1776870178948874200,1.903874267578125,-108.37631225585938,88.70606994628906,-58.0472412109375
1776870178958960000,1.913960205078125,-108.20269775390625,89.25830078125,-58.694366455078125
1776870178969046000,1.9240458984375,-107.54547119140625,89.97503662109375,-59.19950866699219
1776870178979133200,1.93413330078125,-107.66510009765625,90.40855407714844,-60.15960693359375
1776870178989219000,1.944218994140625,-106.47360229492188,91.34919738769531,-59.57322692871094
1776870178999306200,1.95430615234375,-105.35786437988281,91.822998046875,-58.917755126953125
1776870179009391000,1.96439111328125,-105.84469604492188,92.15797424316406,-59.67222595214844
1776870179019477200,1.974477294921875,-105.19097900390625,92.56546020507812,-59.290130615234375
1776870179029562000,1.98456201171875,-103.37428283691406,93.23263549804688,-58.63960266113281
1776870179039646200,1.994646240234375,-104.59646606445312,93.30537414550781,-59.37135314941406
1776870179049732000,2.004732177734375,-103.92599487304688,93.501953125,-58.91766357421875
1776870179059819300,2.0148193359375,-103.07902526855469,93.76011657714844,-58.14195251464844
1776870179069905400,2.024905517578125,-102.88694763183594,93.85292053222656,-58.59184265136719
1776870179079991000,2.034990966796875,-101.831787109375,94.00820922851562,-58.507232666015625
1776870179090078200,2.045078125,-101.3717041015625,94.46684265136719,-58.79685974121094
1776870179100164000,2.0551640625,-101.18798828125,94.87773132324219,-59.405548095703125
1776870179110250200,2.065250244140625,-101.14447021484375,94.98757934570312,-60.66644287109375
1776870179120336100,2.075336181640625,-101.27224731445312,95.10147094726562,-62.225921630859375
1776870179130421200,2.085421142578125,-103.3577880859375,95.22413635253906,-65.07708740234375
1776870179140507100,2.095507080078125,-100.35179138183594,95.72370910644531,-64.25404357910156
1776870179150594300,2.10559423828125,-100.64036560058594,96.08332824707031,-66.21708679199219
1776870179160679200,2.11567919921875,-100.14775085449219,96.07426452636719,-67.33294677734375
1776870179170765000,2.12576513671875,-100.14682006835938,96.49371337890625,-68.17474365234375
1776870179180850200,2.13585009765625,-101.63536071777344,96.84136962890625,-70.6297607421875
1776870179190935000,2.14593505859375,-99.96366882324219,97.42066955566406,-70.11473083496094
1776870179201021200,2.156021240234375,-98.30882263183594,98.06367492675781,-69.22952270507812
1776870179211106000,2.16610595703125,-98.47303771972656,98.58367919921875,-69.90248107910156
1776870179221191200,2.176191162109375,-97.43563842773438,99.10643005371094,-69.23208618164062
1776870179231278000,2.186278076171875,-96.09835815429688,99.29873657226562,-68.44619750976562
1776870179241363200,2.19636328125,-95.89701843261719,99.49784851074219,-68.29519653320312
1776870179251448000,2.206447998046875,-95.21708679199219,100.0650634765625,-68.10417175292969
1776870179261533200,2.216533203125,-93.95718383789062,100.26039123535156,-67.53688049316406
1776870179271617300,2.2266171875,-94.157958984375,100.91358947753906,-68.17918395996094
1776870179281702400,2.236702392578125,-92.84669494628906,101.413818359375,-67.91683959960938
1776870179291786200,2.2467861328125,-91.88571166992188,102.07032775878906,-68.26802062988281
1776870179301870000,2.2568701171875,-90.18647766113281,102.66929626464844,-68.37518310546875
1776870179311954200,2.2669541015625,-89.80419921875,102.72203063964844,-69.11611938476562
1776870179322038300,2.277038330078125,-89.11846923828125,102.96826171875,-69.54148864746094
1776870179332121000,2.28712109375,-88.58299255371094,103.00885009765625,-70.61972045898438
1776870179342205200,2.297205078125,-87.89154052734375,103.20751953125,-71.24053955078125
1776870179352288300,2.307288330078125,-87.71418762207031,103.08810424804688,-73.05680847167969
1776870179362372000,2.3173720703125,-86.02519226074219,102.87495422363281,-74.06871032714844
1776870179372456200,2.327456298828125,-84.23109436035156,103.28602600097656,-74.90151977539062
1776870179382541000,2.337541015625,-83.09901428222656,103.03532409667969,-76.20233154296875
1776870179392626200,2.347626220703125,-81.57142639160156,102.75807189941406,-76.79441833496094
1776870179402710300,2.357710205078125,-81.59133911132812,102.68203735351562,-78.3616943359375
1776870179412796200,2.367796142578125,-81.40434265136719,102.15971374511719,-79.44377136230469
1776870179422881000,2.377881103515625,-81.64100646972656,101.53353881835938,-80.67015075683594
1776870179432967200,2.38796728515625,-82.18986511230469,100.47174072265625,-81.40354919433594
1776870179443052000,2.398052001953125,-82.81980895996094,99.6583251953125,-82.41262817382812
1776870179453138200,2.40813818359375,-83.43966674804688,99.02259826660156,-83.54505920410156
1776870179463222300,2.41822216796875,-83.31814575195312,98.51858520507812,-84.49053955078125
1776870179473307100,2.42830712890625,-82.43855285644531,98.39445495605469,-84.57484436035156
1776870179483391200,2.43839111328125,-81.46371459960938,98.46429443359375,-84.49287414550781
1776870179493474300,2.448474365234375,-81.15599060058594,98.48484802246094,-84.58741760253906
1776870179503557000,2.45855712890625,-80.53094482421875,98.88333129882812,-84.17948913574219
1776870179513640200,2.46864013671875,-80.65568542480469,99.20590209960938,-84.16767883300781
1776870179523723000,2.478722900390625,-79.17216491699219,99.19363403320312,-82.83854675292969
1776870179533807400,2.488807373046875,-79.85926818847656,99.45756530761719,-82.92620849609375
1776870179543891200,2.49889111328125,-79.66862487792969,99.55734252929688,-82.84405517578125
1776870179553975000,2.50897509765625,-80.11866760253906,99.73428344726562,-83.11051940917969
1776870179564059100,2.51905908203125,-79.66252136230469,99.50579833984375,-82.50790405273438
1776870179574144000,2.52914404296875,-80.20207214355469,99.60014343261719,-83.01838684082031
1776870179584228400,2.539228271484375,-79.44331359863281,99.83657836914062,-82.48252868652344
1776870179594313200,2.549313232421875,-80.67509460449219,99.52474975585938,-83.0198974609375
1776870179604396000,2.55939599609375,-80.45573425292969,99.49151611328125,-82.95144653320312
1776870179614479000,2.56947900390625,-80.40824890136719,99.50494384765625,-83.19827270507812
1776870179624562200,2.579562255859375,-81.21444702148438,99.324462890625,-84.03038024902344
1776870179634645200,2.589645263671875,-80.67381286621094,99.25057983398438,-83.27403259277344
1776870179644729000,2.59972900390625,-79.58134460449219,99.37310791015625,-82.64422607421875
1776870179654814200,2.609814208984375,-80.26821899414062,99.32258605957031,-83.03851318359375
1776870179664898000,2.61989794921875,-80.36224365234375,99.21318054199219,-83.0184326171875
1776870179674981000,2.629981201171875,-80.81472778320312,99.22395324707031,-82.87295532226562
1776870179685064200,2.640064208984375,-81.40986633300781,99.13362121582031,-83.04902648925781
1776870179695149000,2.650149169921875,-82.37333679199219,99.21243286132812,-83.56539916992188
1776870179705233200,2.660233154296875,-81.93333435058594,99.36444091796875,-82.81500244140625
1776870179715316000,2.67031591796875,-81.8089599609375,99.16571044921875,-82.52760314941406
1776870179725400300,2.680400390625,-82.980712890625,99.26608276367188,-83.17973327636719
1776870179735485200,2.690485107421875,-82.04864501953125,99.54521179199219,-82.24847412109375
1776870179745569300,2.7005693359375,-82.20841979980469,99.50140380859375,-82.31130981445312
1776870179755653000,2.710653076171875,-81.825927734375,99.49897766113281,-82.15782165527344
1776870179765738200,2.72073828125,-81.59619140625,99.83633422851562,-81.96122741699219
1776870179775824100,2.73082421875,-80.75502014160156,100.00323486328125,-81.57794189453125
1776870179785911000,2.7409111328125,-81.54124450683594,99.55917358398438,-81.71055603027344
1776870179795996200,2.75099609375,-81.20957946777344,99.76828002929688,-81.64599609375
1776870179806081000,2.7610810546875,-81.22755432128906,99.92056274414062,-81.4046630859375
1776870179816166100,2.771166259765625,-81.5341796875,99.83815002441406,-81.45829772949219
1776870179826253000,2.781253173828125,-81.40521240234375,99.79875183105469,-81.0111083984375
1776870179836340200,2.79134033203125,-81.30477905273438,99.74247741699219,-80.78373718261719
1776870179846426400,2.80142626953125,-81.70660400390625,99.95529174804688,-81.09107971191406
1776870179856512000,2.811511962890625,-81.71347045898438,99.8785400390625,-81.14631652832031
1776870179866598100,2.82159814453125,-81.86253356933594,99.61593627929688,-81.12869262695312
1776870179876684300,2.831684326171875,-81.39767456054688,100.08183288574219,-80.83293151855469
1776870179886769200,2.84176904296875,-82.64102172851562,99.97647094726562,-81.57052612304688
1776870179896853200,2.851853271484375,-81.2733154296875,99.91645812988281,-80.82466125488281
1776870179906939400,2.861939453125,-81.53520202636719,100.03189086914062,-80.87005615234375
1776870179917025300,2.872025390625,-81.637451171875,99.96174621582031,-80.73533630371094
1776870179927111400,2.882111328125,-82.30882263183594,99.85585021972656,-81.024169921875
1776870179937195300,2.8921953125,-82.31475830078125,99.86640930175781,-81.12442016601562
1776870179947280400,2.9022802734375,-82.69924926757812,100.0810546875,-81.69206237792969
1776870179957365200,2.912365234375,-82.50834655761719,99.853759765625,-81.2606201171875
1776870179967449000,2.922448974609375,-81.96597290039062,100.121337890625,-81.15707397460938
1776870179977533400,2.932533447265625,-82.03184509277344,99.85008239746094,-81.10430908203125
1776870179987617300,2.9426171875,-82.26763916015625,99.78469848632812,-81.05038452148438
1776870179997701400,2.952701416015625,-82.27812194824219,99.73704528808594,-80.93940734863281
1776870180007786200,2.9627861328125,-82.16439819335938,99.81697082519531,-80.81118774414062
1776870180017871400,2.972871337890625,-81.96818542480469,99.93923950195312,-80.5194091796875
1776870180027956200,2.982956298828125,-82.71644592285156,99.79133605957031,-80.7843017578125
1776870180038041300,2.993041259765625,-83.23173522949219,99.65350341796875,-80.76261901855469
1776870180048124400,3.00312451171875,-83.55241394042969,99.49444580078125,-80.88227844238281
1776870180058208300,3.013208251953125,-82.96311950683594,99.46742248535156,-80.29591369628906
1776870180068293400,3.02329345703125,-83.81101989746094,99.50968933105469,-80.57078552246094
1776870180078378200,3.033378173828125,-84.23103332519531,99.41221618652344,-80.78018188476562
1776870180088465200,3.043465087890625,-85.11775207519531,99.232421875,-81.02671813964844
1776870180098551300,3.05355126953125,-84.80796813964844,99.25445556640625,-80.82984924316406
1776870180108636400,3.063636474609375,-85.374755859375,98.86619567871094,-80.64715576171875
1776870180118724400,3.073724365234375,-85.99922180175781,98.69488525390625,-81.01930236816406
1776870180128810500,3.083810546875,-86.67640686035156,98.37924194335938,-81.11146545410156
1776870180138897200,3.093897216796875,-87.20437622070312,98.01715087890625,-81.21720886230469
1776870180148984300,3.103984375,-87.61576843261719,97.93452453613281,-81.03215026855469
1776870180159069200,3.114069091796875,-88.75929260253906,97.48617553710938,-81.22932434082031
1776870180169154300,3.124154296875,-89.99986267089844,97.06864929199219,-81.52206420898438
1776870180179239200,3.1342392578125,-89.99076843261719,96.78485107421875,-81.00665283203125
1776870180189323300,3.1443232421875,-89.77494812011719,96.69354248046875,-80.43583679199219
1776870180199408400,3.154408447265625,-90.37876892089844,96.22300720214844,-80.41453552246094
1776870180209493500,3.164493408203125,-90.92091369628906,96.39927673339844,-80.52947998046875
1776870180219578400,3.174578369140625,-91.29953002929688,96.35069274902344,-80.74533081054688
1776870180229663500,3.18466357421875,-90.97331237792969,96.48635864257812,-80.38162231445312
1776870180239748400,3.194748291015625,-90.86038208007812,96.40138244628906,-80.42942810058594
1776870180249834200,3.204834228515625,-90.528076171875,96.80484008789062,-80.49757385253906
1776870180259919400,3.21491943359375,-90.71646118164062,96.890869140625,-80.8939208984375
1776870180270004200,3.225004150390625,-90.75990295410156,96.96766662597656,-81.75080871582031
1776870180280090400,3.23509033203125,-89.54447937011719,97.24446105957031,-80.96810913085938
1776870180290176500,3.245176513671875,-88.76449584960938,97.44172668457031,-80.54257202148438
1776870180300262100,3.25526220703125,-88.42649841308594,97.41741943359375,-80.60182189941406
1776870180310349300,3.265349365234375,-88.47801208496094,97.72538757324219,-80.59025573730469
1776870180320435200,3.275435302734375,-88.34796142578125,97.69387817382812,-80.91622924804688
1776870180330521300,3.285521240234375,-87.60305786132812,98.02885437011719,-80.54533386230469
1776870180340608300,3.295608154296875,-87.22547912597656,98.15673828125,-81.00454711914062
1776870180350693000,3.305693115234375,-86.36068725585938,98.32511901855469,-80.69192504882812
1776870180360779300,3.315779296875,-86.64460754394531,98.23582458496094,-81.04661560058594
1776870180370865400,3.325865478515625,-85.57444763183594,98.32003784179688,-80.85176086425781
1776870180380950300,3.3359501953125,-86.14353942871094,98.59970092773438,-81.40451049804688
1776870180391034400,3.346034423828125,-85.1171875,98.44508361816406,-80.89268493652344
1776870180401120300,3.356120361328125,-84.78271484375,98.71949768066406,-80.9556884765625
1776870180411205400,3.366205322265625,-84.58827209472656,98.65678405761719,-81.2203369140625
1776870180421292300,3.376292236328125,-84.42715454101562,98.85794067382812,-81.19334411621094
1776870180431379200,3.386379150390625,-84.29519653320312,98.98582458496094,-81.168701171875
1776870180441466400,3.39646630859375,-84.55393981933594,99.01545715332031,-81.75782775878906
1776870180451552500,3.406552490234375,-84.07180786132812,99.15492248535156,-81.09634399414062
1776870180461638100,3.41663818359375,-84.01167297363281,99.20555114746094,-81.16487121582031
1776870180471724300,3.426724365234375,-84.07025146484375,99.42385864257812,-81.13990783691406
1776870180481810400,3.436810546875,-83.98893737792969,98.91423034667969,-81.45315551757812
1776870180491896300,3.446896240234375,-83.32005310058594,99.22312927246094,-81.19888305664062
1776870180501983500,3.4569833984375,-83.76411437988281,99.13438415527344,-81.53199768066406
1776870180512071400,3.467071533203125,-83.90902709960938,99.01123046875,-81.48588562011719
1776870180522159400,3.477159423828125,-84.43580627441406,99.09022521972656,-82.07423400878906
1776870180532246300,3.487246337890625,-84.63191223144531,98.9334716796875,-82.29052734375
1776870180542335200,3.497335205078125,-84.4471435546875,99.07960510253906,-82.29246520996094
1776870180552421400,3.50742138671875,-83.49356079101562,99.08934020996094,-81.75956726074219
1776870180562508300,3.51750830078125,-84.12979125976562,99.069091796875,-82.01753234863281
1776870180572594400,3.527594482421875,-84.41253662109375,99.12307739257812,-82.09001159667969
1776870180582679300,3.53767919921875,-85.23439025878906,99.22311401367188,-82.53158569335938
1776870180592764400,3.547764404296875,-85.03378295898438,99.05549621582031,-82.02522277832031
1776870180602850300,3.557850341796875,-85.44082641601562,99.07586669921875,-82.31068420410156
1776870180612936200,3.567936279296875,-85.36758422851562,99.17875671386719,-82.18800354003906
1776870180623022300,3.578022216796875,-85.30935668945312,99.07156372070312,-81.83189392089844
1776870180633109200,3.588109130859375,-85.83358764648438,98.9388427734375,-82.46554565429688
1776870180643196400,3.598196533203125,-85.48930358886719,99.10374450683594,-82.23007202148438
1776870180653281300,3.60828125,-86.23158264160156,98.76860046386719,-82.51988220214844
1776870180663366400,3.618366455078125,-85.49179077148438,98.63432312011719,-82.08999633789062
1776870180673453300,3.628453369140625,-85.71388244628906,98.69891357421875,-82.45039367675781
1776870180683539500,3.63853955078125,-85.6539306640625,98.61195373535156,-82.4398193359375
1776870180693624300,3.648624267578125,-85.81010437011719,98.59750366210938,-82.52960205078125
1776870180703710200,3.658710205078125,-86.55514526367188,98.25210571289062,-83.09970092773438
1776870180713795000,3.668795166015625,-86.42410278320312,98.19441223144531,-83.13594055175781
1776870180723880200,3.678880126953125,-86.91923522949219,98.24458312988281,-83.50108337402344
1776870180733966300,3.68896630859375,-86.72886657714844,98.02584838867188,-83.36204528808594
1776870180744052500,3.699052490234375,-87.00338745117188,97.85398864746094,-83.47496032714844
1776870180754138000,3.70913818359375,-87.40824890136719,97.65260314941406,-83.49200439453125
1776870180764224300,3.719224365234375,-87.85343933105469,97.7261962890625,-83.48773193359375
1776870180774309400,3.729309326171875,-88.19541931152344,97.12974548339844,-83.30307006835938
1776870180784395300,3.739395263671875,-88.62092590332031,97.10052490234375,-83.24119567871094
1776870180794481200,3.749481201171875,-89.03695678710938,96.70466613769531,-83.20225524902344
1776870180804566300,3.759566162109375,-90.01756286621094,96.27267456054688,-83.71859741210938
1776870180814652200,3.769652099609375,-90.65162658691406,95.85943603515625,-83.61918640136719
1776870180824738300,3.77973828125,-91.18232727050781,95.52896118164062,-83.8831787109375
1776870180834823400,3.789823486328125,-90.98245239257812,95.23173522949219,-83.52928161621094
1776870180844909300,3.799909423828125,-91.88145446777344,94.78054809570312,-83.9495849609375
1776870180854995200,3.8099951171875,-91.90371704101562,94.68452453613281,-83.58381652832031
1776870180865081300,3.820081298828125,-92.72305297851562,94.452880859375,-84.00723266601562
1776870180875166200,3.830166259765625,-92.32542419433594,94.28346252441406,-83.44546508789062
1776870180885252400,3.84025244140625,-92.55351257324219,94.04966735839844,-83.44955444335938
1776870180895336000,3.8503359375,-92.94825744628906,93.61546325683594,-83.43226623535156
1776870180905422000,3.860422119140625,-94.35696411132812,93.26945495605469,-83.55422973632812
1776870180915509000,3.870509033203125,-93.67692565917969,93.31166076660156,-82.80836486816406
1776870180925593900,3.88059375,-94.18766784667969,93.12149047851562,-82.30552673339844
1776870180935679000,3.890678955078125,-94.85226440429688,92.66047668457031,-82.17608642578125
1776870180945763800,3.900763916015625,-95.26193237304688,92.18666076660156,-81.69038391113281
1776870180955847000,3.910846923828125,-96.26689147949219,91.88372802734375,-81.83833312988281
1776870180965931800,3.920931884765625,-96.96060180664062,91.41348266601562,-81.77391052246094
1776870180976016000,3.931015869140625,-97.76600646972656,90.927001953125,-81.38679504394531
1776870180986100000,3.941099853515625,-97.52337646484375,90.49972534179688,-80.46124267578125
1776870180996184800,3.951184814453125,-98.23463439941406,90.29745483398438,-79.95097351074219
1776870181006270000,3.96127001953125,-98.98614501953125,89.70167541503906,-79.43504333496094
1776870181016356900,3.97135693359375,-99.97390747070312,89.50981140136719,-78.8524169921875
1776870181026441700,3.981441650390625,-100.07192993164062,89.11947631835938,-77.796630859375
1776870181036527900,3.99152783203125,-100.99531555175781,88.76164245605469,-77.4888916015625
1776870181046613000,4.001613037109375,-101.46878051757812,88.45231628417969,-76.56431579589844
1776870181056697900,4.01169775390625,-102.04994201660156,88.10237121582031,-76.18191528320312
1776870181066784000,4.021783935546875,-102.28192138671875,87.57527160644531,-75.98381042480469
1776870181076870000,4.031869873046875,-102.46751403808594,87.30485534667969,-75.35005187988281
1776870181086957000,4.04195703125,-103.24459838867188,86.34829711914062,-75.13423156738281
1776870181097044000,4.0520439453125,-103.74079895019531,85.6295166015625,-75.24935913085938
1776870181107129900,4.0621298828125,-104.10902404785156,84.76004028320312,-74.57516479492188
1776870181117215000,4.072215087890625,-105.31050109863281,84.03289794921875,-74.99716186523438
1776870181127300000,4.082300048828125,-104.13900756835938,83.12141418457031,-73.44541931152344
1776870181137385000,4.092385009765625,-106.17195129394531,82.27728271484375,-74.25297546386719
1776870181147472000,4.102471923828125,-105.77618408203125,81.52687072753906,-73.40754699707031
1776870181157558000,4.11255810546875,-106.39903259277344,80.70243835449219,-73.40826416015625
1776870181167645000,4.12264501953125,-106.16102600097656,79.68849182128906,-72.84219360351562
1776870181177728800,4.132728759765625,-106.92791748046875,78.73722839355469,-73.21437072753906
1776870181187815000,4.14281494140625,-107.30903625488281,77.59957885742188,-72.69142150878906
1776870181197901000,4.152901123046875,-107.82240295410156,76.53031921386719,-72.5513916015625
1776870181207987000,4.162987060546875,-107.91940307617188,75.61106872558594,-72.15689086914062
1776870181218072800,4.17307275390625,-108.57012939453125,74.66806030273438,-72.79924011230469
1776870181228159000,4.183158935546875,-109.59226989746094,73.798095703125,-73.58271789550781
1776870181238246000,4.193245849609375,-108.74125671386719,72.59065246582031,-72.64859008789062
1776870181248332000,4.20333203125,-108.17283630371094,71.766845703125,-72.21005249023438
1776870181258420000,4.213419921875,-108.50717163085938,70.51689147949219,-72.4556884765625
1776870181268505900,4.223505859375,-108.61125183105469,69.65467834472656,-72.48532104492188
1776870181278592800,4.2335927734375,-108.71035766601562,68.53117370605469,-72.40205383300781
1776870181288681000,4.243680908203125,-108.81513977050781,67.39839172363281,-72.2403564453125
1776870181298768000,4.253767822265625,-108.45516967773438,66.536376953125,-71.7552490234375
1776870181308853800,4.263853759765625,-108.36625671386719,65.8797607421875,-71.77287292480469
1776870181318939000,4.27393896484375,-108.49650573730469,64.94778442382812,-71.98146057128906
1776870181329025000,4.28402490234375,-108.91513061523438,63.84413146972656,-71.80589294433594
1776870181339111000,4.29411083984375,-108.35565185546875,62.88362121582031,-71.525146484375
1776870181349197800,4.30419775390625,-108.51138305664062,62.173614501953125,-71.66954040527344
1776870181359284000,4.314283935546875,-108.2099609375,61.19891357421875,-71.48379516601562
1776870181369371000,4.324370849609375,-108.50028991699219,60.58326721191406,-71.58543395996094
1776870181379458800,4.334458740234375,-108.15388488769531,59.96147155761719,-71.9644775390625
1776870181389545000,4.344544921875,-107.84613037109375,59.129852294921875,-71.5997314453125
1776870181399631000,4.354631103515625,-107.28352355957031,58.445892333984375,-71.29338073730469
1776870181409716000,4.364716064453125,-107.26641845703125,57.57127380371094,-71.16120910644531
1776870181419801900,4.3748017578125,-108.44454956054688,57.055572509765625,-72.09375
1776870181429885000,4.384885009765625,-107.23237609863281,56.47798156738281,-71.09074401855469
1776870181439971000,4.39497119140625,-107.25544738769531,56.232208251953125,-71.08685302734375
1776870181450056000,4.405055908203125,-107.71127319335938,55.92637634277344,-71.20851135253906
1776870181460141000,4.41514111328125,-106.67890930175781,55.91499328613281,-70.74954223632812
1776870181470226000,4.425225830078125,-108.10874938964844,55.55499267578125,-71.45761108398438
1776870181480311800,4.435311767578125,-107.10464477539062,55.63468933105469,-70.74818420410156
1776870181490397000,4.44539697265625,-106.76658630371094,55.78594970703125,-70.40602111816406
1776870181500481800,4.455481689453125,-107.28842163085938,55.709869384765625,-70.61904907226562
1776870181510567000,4.46556689453125,-107.62335205078125,55.9659423828125,-70.43315124511719
1776870181520653000,4.475653076171875,-107.44363403320312,56.34379577636719,-70.38551330566406
1776870181530739000,4.485739013671875,-106.68952941894531,56.82252502441406,-69.70791625976562
1776870181540824800,4.495824951171875,-108.430419921875,56.99815368652344,-71.11317443847656
1776870181550911000,4.505910888671875,-107.81523132324219,57.630279541015625,-70.3680419921875
1776870181560998000,4.515997802734375,-107.20608520507812,58.049407958984375,-70.01582336425781
1776870181571085000,4.5260849609375,-107.83119201660156,58.52272033691406,-70.14762878417969
1776870181581172000,4.536171875,-107.43731689453125,59.14558410644531,-69.77464294433594
1776870181591259000,4.5462587890625,-107.3671875,59.64634704589844,-69.47325134277344
1776870181601347000,4.55634716796875,-108.4095458984375,60.20570373535156,-70.43830871582031
1776870181611435000,4.56643505859375,-108.21664428710938,61.03837585449219,-70.07847595214844
1776870181621522000,4.57652197265625,-108.23448181152344,61.84559631347656,-70.33744812011719
1776870181631609900,4.58660986328125,-108.59306335449219,62.444549560546875,-70.40151977539062
1776870181641696000,4.596696044921875,-108.65614318847656,63.14662170410156,-70.54660034179688
1776870181651784000,4.606783935546875,-108.45372009277344,63.988250732421875,-70.33274841308594
1776870181661870800,4.616870849609375,-108.80104064941406,64.78628540039062,-70.69804382324219
1776870181671958000,4.6269580078125,-109.30247497558594,65.23637390136719,-70.76681518554688
1776870181682045000,4.637044921875,-109.02986145019531,66.30804443359375,-70.735107421875
1776870181692130800,4.647130859375,-108.08938598632812,67.02899169921875,-69.84989929199219
1776870181702217700,4.6572177734375,-109.07208251953125,68.03640747070312,-70.64280700683594
1776870181712305000,4.667304931640625,-108.80628967285156,69.09866333007812,-70.559814453125
1776870181722391800,4.677391845703125,-109.12782287597656,69.85714721679688,-70.57206726074219
1776870181732479000,4.68747900390625,-108.37315368652344,70.62686157226562,-70.11952209472656
1776870181742566000,4.69756591796875,-108.86737060546875,71.35408020019531,-70.30810546875
1776870181752652000,4.707652099609375,-108.78584289550781,72.53401184082031,-70.18617248535156
1776870181762739000,4.717739013671875,-108.24049377441406,73.31674194335938,-70.042236328125
1776870181772825900,4.727825927734375,-108.86369323730469,73.92227172851562,-70.55354309082031
1776870181782913000,4.7379130859375,-108.21333312988281,75.16133117675781,-70.20893859863281
1776870181793001000,4.7480009765625,-107.60719299316406,75.82882690429688,-69.9429931640625
1776870181803088000,4.758087890625,-107.85096740722656,76.58314514160156,-70.34619140625
1776870181813176800,4.7681767578125,-107.63917541503906,77.37187194824219,-70.17350769042969
1776870181823264800,4.7782646484375,-108.08987426757812,78.29931640625,-70.83660888671875
1776870181833354000,4.78835400390625,-107.318359375,78.97119140625,-70.28541564941406
1776870181843442000,4.79844189453125,-106.60838317871094,79.90057373046875,-70.07061767578125
1776870181853528000,4.808528076171875,-107.04051208496094,80.65986633300781,-70.56332397460938
1776870181863615000,4.818614990234375,-107.36592102050781,81.1268310546875,-71.01670837402344
1776870181873703000,4.828702880859375,-107.90480041503906,81.96673583984375,-71.57980346679688
1776870181883790800,4.838790771484375,-106.75094604492188,82.53065490722656,-71.05877685546875
1776870181893880300,4.84888037109375,-105.60371398925781,83.08871459960938,-70.57810974121094
1776870181903967500,4.858967529296875,-105.75350952148438,83.74586486816406,-71.31269836425781
1776870181914054400,4.869054443359375,-105.08636474609375,84.63162231445312,-71.09182739257812
1776870181924143400,4.879143310546875,-103.990234375,84.84341430664062,-70.58097839355469
1776870181934230300,4.889230224609375,-104.08811950683594,85.42221069335938,-70.99151611328125
1776870181944318200,4.899318115234375,-103.89471435546875,86.0877685546875,-71.34075927734375
1776870181954406100,4.90940625,-104.69688415527344,86.46646118164062,-72.6287841796875
1776870181964493300,4.919493408203125,-103.21994018554688,87.12899780273438,-72.29319763183594
1776870181974581500,4.92958154296875,-103.40699768066406,87.33914184570312,-72.9254150390625
1776870181984668400,4.93966845703125,-103.38710021972656,87.70663452148438,-73.55970764160156
1776870181994754300,4.94975439453125,-102.94908142089844,88.11613464355469,-73.80657958984375
1776870182004841200,4.95984130859375,-103.00527954101562,88.40611267089844,-74.16795349121094
1776870182014926300,4.96992626953125,-102.58531188964844,88.93797302246094,-74.28512573242188
1776870182025014500,4.9800146484375,-101.75990295410156,89.42030334472656,-74.20001220703125
1776870182035101400,4.990101318359375,-101.82926940917969,89.68118286132812,-74.44454956054688
1776870182045188400,5.000188232421875,-102.18501281738281,90.02491760253906,-75.38682556152344
1776870182055274500,5.0102744140625,-101.38450622558594,90.47552490234375,-75.132568359375
1776870182065360400,5.0203603515625,-101.2591552734375,90.93487548828125,-75.59536743164062
1776870182075446300,5.0304462890625,-101.31105041503906,91.15501403808594,-75.91827392578125
1776870182085532400,5.040532470703125,-100.36393737792969,91.87606811523438,-75.89199829101562
1776870182095617300,5.0506171875,-100.16221618652344,92.16181945800781,-76.07977294921875
1776870182105703400,5.060703369140625,-100.12315368652344,92.91136169433594,-76.52763366699219
1776870182115790300,5.070790283203125,-98.569580078125,93.02088928222656,-75.77702331542969
1776870182125878300,5.080878173828125,-98.28483581542969,93.4954833984375,-76.35678100585938
1776870182135966200,5.09096630859375,-98.37776184082031,94.1246337890625,-77.15687561035156
1776870182146054100,5.10105419921875,-98.71269226074219,94.15025329589844,-77.69956970214844
1776870182156141300,5.111141357421875,-96.80583190917969,94.873291015625,-76.73930358886719
1776870182166228200,5.121228271484375,-96.69212341308594,95.29219055175781,-77.26240539550781
1776870182176313300,5.131313232421875,-96.35836791992188,95.554443359375,-77.63485717773438
1776870182186400500,5.141400390625,-96.41070556640625,95.98959350585938,-78.61050415039062
1776870182196487400,5.1514873046875,-95.26155090332031,96.49641418457031,-78.24362182617188
1776870182206574300,5.16157421875,-94.32415771484375,96.93801879882812,-78.23800659179688
1776870182216661500,5.17166162109375,-94.0419921875,97.10604858398438,-78.44682312011719
1776870182226749400,5.18174951171875,-93.32958984375,97.59368896484375,-78.82803344726562
1776870182236837400,5.19183740234375,-93.01463317871094,98.18577575683594,-79.49726867675781
1776870182246924300,5.20192431640625,-92.50151062011719,98.23127746582031,-79.84248352050781
1776870182257010400,5.212010498046875,-92.05409240722656,98.3994140625,-80.18360900878906
1776870182267097600,5.22209765625,-91.27548217773438,98.60858154296875,-80.37020874023438
1776870182277184500,5.2321845703125,-90.38650512695312,99.00506591796875,-80.25033569335938
1776870182287272400,5.2422724609375,-88.90153503417969,99.43513488769531,-80.09208679199219
1776870182297359400,5.252359375,-88.73561096191406,99.63357543945312,-80.19534301757812
1776870182307446500,5.262446533203125,-87.66688537597656,100.10993957519531,-80.32615661621094
1776870182317531400,5.272531494140625,-87.16484069824219,99.98248291015625,-79.84873962402344
1776870182327618300,5.282618408203125,-86.54864501953125,100.04853820800781,-79.66218566894531
1776870182337705500,5.29270556640625,-86.70541381835938,100.107177734375,-80.08462524414062
1776870182347792400,5.30279248046875,-86.09907531738281,100.13584899902344,-79.90628051757812
1776870182357880300,5.31288037109375,-86.37322998046875,100.47477722167969,-79.97695922851562
1776870182367966500,5.322966552734375,-85.56916809082031,100.42132568359375,-79.75531005859375
1776870182378052400,5.33305224609375,-86.05499267578125,100.3968505859375,-80.24168395996094
1776870182388140500,5.343140625,-85.17376708984375,100.48532104492188,-79.78105163574219
1776870182398227500,5.3532275390625,-85.439208984375,100.54725646972656,-80.44847106933594
1776870182408314400,5.363314453125,-85.91773986816406,100.54690551757812,-80.70384216308594
1776870182418400300,5.373400146484375,-85.18960571289062,100.58174133300781,-80.5902099609375
1776870182428486400,5.383486328125,-85.39840698242188,100.47752380371094,-80.73321533203125
1776870182438573300,5.3935732421875,-85.00834655761719,100.46885681152344,-80.833984375
1776870182448660500,5.403660400390625,-84.82807922363281,100.62400817871094,-80.97744750976562
1776870182458748400,5.41374853515625,-84.47406005859375,100.62535095214844,-81.01803588867188
1776870182468835300,5.42383544921875,-84.2130126953125,100.45693969726562,-80.63591003417969
1776870182478922200,5.433922119140625,-84.04191589355469,100.65814208984375,-80.79931640625
1776870182489009400,5.444009521484375,-83.04228210449219,100.88735961914062,-80.21055603027344
1776870182499097300,5.454097412109375,-83.70722961425781,101.04403686523438,-80.64128112792969
1776870182509184300,5.464184326171875,-83.31283569335938,101.03012084960938,-79.85235595703125
1776870182519272400,5.4742724609375,-82.72016906738281,101.11677551269531,-79.15948486328125
1776870182529359400,5.484359375,-83.87379455566406,100.97874450683594,-79.71537780761719
1776870182539446300,5.4944462890625,-84.34548950195312,101.07395935058594,-79.72389221191406
1776870182549533400,5.504533447265625,-84.02349853515625,100.79005432128906,-79.33354187011719
1776870182559619300,5.514619384765625,-84.28030395507812,100.60798645019531,-79.20689392089844
1776870182569705500,5.52470556640625,-85.20333862304688,100.82720947265625,-79.25419616699219
1776870182579790300,5.534790283203125,-85.21226501464844,100.94215393066406,-78.85150146484375
1776870182589876500,5.54487646484375,-85.0699462890625,100.93089294433594,-78.29023742675781
1776870182599962400,5.55496240234375,-86.01243591308594,100.86111450195312,-78.92239379882812
1776870182610049500,5.565049560546875,-85.45368957519531,100.87240600585938,-78.28045654296875
1776870182620137500,5.575137451171875,-85.83613586425781,100.87969970703125,-78.35067749023438
1776870182630224400,5.585224365234375,-86.17800903320312,100.63540649414062,-78.71656799316406
1776870182640312300,5.595312255859375,-86.25051879882812,100.81565856933594,-78.91996765136719
1776870182650400500,5.605400390625,-86.39801025390625,100.73768615722656,-79.12411499023438
1776870182660487400,5.6154873046875,-86.11032104492188,100.53305053710938,-79.1298828125
1776870182670574300,5.62557421875,-86.27201843261719,100.60397338867188,-79.27751159667969
1776870182680660500,5.635660400390625,-85.72941589355469,100.7093505859375,-78.62973022460938
1776870182690746400,5.645746337890625,-86.05674743652344,100.72897338867188,-78.74029541015625
1776870182700832300,5.655832275390625,-86.33924865722656,100.72599792480469,-79.15087890625
1776870182710917400,5.66591748046875,-85.43594360351562,100.97425842285156,-78.40687561035156
1776870182721001500,5.67600146484375,-86.12446594238281,100.97187805175781,-78.70301818847656
1776870182731086600,5.686086669921875,-86.21783447265625,100.98455810546875,-78.65789794921875
1776870182741172200,5.696172119140625,-85.367919921875,101.00297546386719,-78.27525329589844
1776870182751259400,5.70625927734375,-85.45130920410156,100.97999572753906,-77.92826843261719
1776870182761347300,5.716347412109375,-85.7081298828125,100.84161376953125,-78.4449462890625
1776870182771434200,5.726434326171875,-85.94313049316406,101.2103271484375,-78.77813720703125
1776870182781521400,5.736521484375,-85.43899536132812,101.10726928710938,-78.05406188964844
1776870182791608300,5.7466083984375,-85.28976440429688,100.9033203125,-78.08509826660156
1776870182801694500,5.756694580078125,-86.51492309570312,100.92344665527344,-79.15589904785156
1776870182811781400,5.766781494140625,-85.49095153808594,101.07623291015625,-78.356689453125
1776870182821867500,5.776867431640625,-86.34254455566406,101.00178527832031,-78.93223571777344
1776870182831953400,5.786953369140625,-87.46241760253906,100.87515258789062,-79.88088989257812
1776870182842039300,5.797039306640625,-86.54875183105469,100.77821350097656,-79.19546508789062
1776870182852127200,5.807127197265625,-86.73440551757812,100.56196594238281,-79.26387023925781
1776870182862214400,5.81721435546875,-86.92887878417969,100.68795776367188,-79.07627868652344
1776870182872301300,5.82730126953125,-87.09727478027344,100.54258728027344,-79.48789978027344
1776870182882387500,5.837387451171875,-87.32530212402344,100.49490356445312,-79.35491943359375
1776870182892473900,5.847473876953125,-87.30984497070312,100.47718811035156,-79.437744140625
1776870182902561000,5.85756103515625,-86.96536254882812,100.48716735839844,-79.19033813476562
1776870182912647000,5.86764697265625,-87.65548706054688,100.32180786132812,-79.62216186523438
1776870182922734000,5.877734130859375,-86.79898071289062,100.65678405761719,-79.05087280273438
1776870182932820000,5.887820068359375,-86.88325500488281,100.61199951171875,-79.04425048828125
1776870182942908200,5.897908203125,-87.21063232421875,100.71034240722656,-79.25303649902344
1776870182952994000,5.907994140625,-87.12986755371094,100.38748168945312,-79.23884582519531
1776870182963080000,5.918079833984375,-87.01042175292969,100.30125427246094,-79.27926635742188
1776870182973166800,5.928166748046875,-87.25143432617188,100.38113403320312,-79.165283203125
1776870182983255000,5.938255126953125,-86.93267822265625,100.48419189453125,-79.29959106445312
1776870182993343200,5.94834326171875,-86.66268920898438,100.47976684570312,-79.00834655761719
1776870183003430100,5.95843017578125,-87.05928039550781,100.52285766601562,-79.46452331542969
1776870183013517000,5.96851708984375,-86.418701171875,100.39596557617188,-79.33601379394531
1776870183023604200,5.978604248046875,-86.531005859375,100.60678100585938,-79.21929931640625
1776870183033691000,5.98869091796875,-87.35028076171875,100.59759521484375,-79.84295654296875
1776870183043779000,5.998779052734375,-86.21932983398438,100.6656494140625,-79.05238342285156
1776870183053867000,6.008866943359375,-86.61669921875,100.49822998046875,-79.43962097167969
1776870183063955000,6.018954833984375,-86.09295654296875,100.62033081054688,-79.0908203125
1776870183074041000,6.029041015625,-85.974853515625,100.43331909179688,-78.79774475097656
1776870183084129000,6.03912890625,-85.65675354003906,100.60459899902344,-78.69847106933594
1776870183094216200,6.04921630859375,-85.72830200195312,100.65695190429688,-78.37640380859375
1776870183104303000,6.05930322265625,-87.47198486328125,100.40895080566406,-79.80816650390625
1776870183114392000,6.06939208984375,-86.26777648925781,100.61473083496094,-79.24073791503906
1776870183124480000,6.07947998046875,-85.60400390625,100.50154113769531,-78.62336730957031
1776870183134566100,6.089566162109375,-85.7467041015625,100.45918273925781,-78.77210998535156
1776870183144655000,6.099655029296875,-86.23207092285156,100.33827209472656,-78.92417907714844
1776870183154742000,6.109741943359375,-87.14070129394531,100.20454406738281,-79.73336791992188
1776870183164830000,6.119829833984375,-85.85511779785156,100.10324096679688,-78.60713195800781
1776870183174918000,6.12991796875,-86.46739196777344,100.02685546875,-78.87640380859375
1776870183185007000,6.140007080078125,-86.04182434082031,100.32061767578125,-78.73143005371094
1776870183195094000,6.150093994140625,-85.71429443359375,100.21871948242188,-78.44223022460938
1776870183205183000,6.160182861328125,-86.57815551757812,100.13810729980469,-79.13059997558594
1776870183215271000,6.17027099609375,-85.80943298339844,100.37953186035156,-78.56944274902344
1776870183225358800,6.18035888671875,-85.90309143066406,100.24632263183594,-78.50709533691406
1776870183235446000,6.190446044921875,-86.415283203125,100.17784118652344,-78.99267578125
1776870183245534000,6.200533935546875,-85.93939208984375,100.23834228515625,-78.38983154296875
1776870183255624000,6.2106240234375,-86.29075622558594,100.03718566894531,-78.33294677734375
1776870183265712000,6.220712158203125,-87.57026672363281,100.22044372558594,-79.01419067382812
1776870183275800000,6.230800048828125,-87.63804626464844,99.92161560058594,-78.89515686035156
1776870183285887000,6.240886962890625,-87.73854064941406,100.03956604003906,-78.36099243164062
1776870183295974100,6.25097412109375,-87.86839294433594,100.08721923828125,-78.59672546386719
1776870183306064100,6.261064208984375,-88.36666870117188,99.70295715332031,-78.47811889648438
1776870183316151000,6.271151123046875,-87.90945434570312,99.66166687011719,-78.18832397460938
1776870183326240000,6.281239990234375,-88.52745056152344,99.560546875,-78.33692932128906
1776870183336328000,6.291327880859375,-87.63053894042969,99.41270446777344,-77.45057678222656
1776870183346417000,6.3014169921875,-88.55397033691406,99.4814453125,-78.14137268066406
1776870183356504000,6.311504150390625,-88.99844360351562,99.20018005371094,-78.15657043457031
1776870183366593000,6.321593017578125,-88.85911560058594,99.20991516113281,-78.10928344726562
1776870183376681200,6.33168115234375,-89.44340515136719,98.92582702636719,-78.15000915527344
1776870183386770000,6.34177001953125,-89.86662292480469,98.78775024414062,-78.0941162109375
1776870183396857900,6.35185791015625,-89.85527038574219,98.57240295410156,-78.26887512207031
1776870183406945000,6.361945068359375,-90.17257690429688,98.32710266113281,-78.49317932128906
1776870183417032000,6.372031982421875,-90.37603759765625,98.09660339355469,-78.4765625
1776870183427119000,6.382119140625,-90.67604064941406,97.80499267578125,-78.39697265625
1776870183437206000,6.3922060546875,-90.96243286132812,97.57080078125,-78.37174987792969
1776870183447292200,6.402292236328125,-91.67286682128906,97.23274230957031,-78.48388671875
1776870183457378000,6.4123779296875,-91.99168395996094,96.95442199707031,-78.44171142578125
1776870183467464000,6.4224638671875,-93.24900817871094,96.59373474121094,-79.05587768554688
1776870183477551000,6.432551025390625,-93.38398742675781,96.223876953125,-78.91282653808594
1776870183487638000,6.442637939453125,-93.55120849609375,96.01443481445312,-78.69143676757812
1776870183497724200,6.45272412109375,-93.62062072753906,95.49478149414062,-79.02766418457031
1776870183507811000,6.46281103515625,-93.83010864257812,95.30709838867188,-78.6458740234375
1776870183517898000,6.47289794921875,-95.19242858886719,94.81640625,-79.64047241210938
1776870183527985200,6.482985107421875,-95.145263671875,94.614501953125,-79.06204223632812
1776870183538072000,6.493072021484375,-95.41853332519531,94.41325378417969,-78.82722473144531
1776870183548159200,6.5031591796875,-95.7718505859375,94.00352478027344,-78.55537414550781
1776870183558244900,6.513244873046875,-96.36703491210938,93.82014465332031,-78.35130310058594
1776870183568330000,6.523330078125,-96.48008728027344,93.20195007324219,-78.23582458496094
1776870183578417200,6.533417236328125,-97.02865600585938,93.14602661132812,-78.09217834472656
1776870183588502000,6.543501953125,-96.97430419921875,92.85243225097656,-77.57107543945312
1776870183598588000,6.553587890625,-97.42942810058594,92.35232543945312,-77.55526733398438
1776870183608675000,6.563675048828125,-97.873046875,91.67506408691406,-77.26983642578125
1776870183618764300,6.573764404296875,-98.482421875,91.45576477050781,-76.72625732421875
1776870183628852200,6.583852294921875,-99.14825439453125,90.68309020996094,-76.20870971679688
1776870183638940200,6.593940185546875,-99.55917358398438,90.47102355957031,-75.38076782226562
1776870183649029000,6.604029052734375,-100.29757690429688,90.02783203125,-75.16984558105469
1776870183659116000,6.614115966796875,-100.95840454101562,89.76911926269531,-74.66999816894531
1776870183669203000,6.624202880859375,-101.24925231933594,89.26789855957031,-73.51408386230469
1776870183679290000,6.6342900390625,-101.86141967773438,88.75772094726562,-73.14401245117188
1776870183689376000,6.6443759765625,-102.24876403808594,88.29946899414062,-71.97100830078125
1776870183699462000,6.6544619140625,-102.49774169921875,87.9403076171875,-71.01499938964844
1776870183709548000,6.664548095703125,-102.87983703613281,87.44375610351562,-70.66845703125
1776870183719634200,6.67463427734375,-103.31619262695312,86.89657592773438,-69.95050048828125
1776870183729720000,6.684719970703125,-103.63029479980469,86.21780395507812,-69.736572265625
1776870183739808000,6.69480810546875,-104.66079711914062,85.27481079101562,-69.60661315917969
1776870183749895200,6.704895263671875,-104.9398193359375,84.70301818847656,-69.32545471191406
1776870183759982000,6.714982177734375,-105.06697082519531,83.61248779296875,-68.60935974121094
1776870183770069200,6.7250693359375,-106.00946044921875,82.99082946777344,-68.92587280273438
1776870183780157200,6.7351572265625,-107.66847229003906,81.78497314453125,-69.14198303222656
1776870183790244000,6.745244140625,-108.10295104980469,80.74711608886719,-69.18389892578125
1776870183800332000,6.75533203125,-107.12362670898438,79.65382385253906,-67.78732299804688
1776870183810419200,6.765419189453125,-107.64808654785156,78.56318664550781,-67.74928283691406
1776870183820507100,6.775507080078125,-108.01692199707031,77.42578125,-67.75425720214844
1776870183830593000,6.785593017578125,-108.06134033203125,76.455810546875,-67.56178283691406
1776870183840681000,6.795680908203125,-108.3753662109375,75.54664611816406,-67.43251037597656
1776870183850768100,6.80576806640625,-108.49020385742188,74.51577758789062,-67.58937072753906
1776870183860854300,6.815854248046875,-108.8612060546875,73.47470092773438,-67.64974975585938
1776870183870940000,6.82593994140625,-109.47048950195312,72.30612182617188,-67.57489013671875
1776870183881027000,6.836027099609375,-109.51002502441406,71.33599853515625,-67.64483642578125
1776870183891115000,6.846114990234375,-109.18455505371094,70.38064575195312,-67.32615661621094
1776870183901206500,6.85620654296875,-109.62249755859375,69.346435546875,-67.44630432128906
1776870183911293400,6.86629345703125,-109.13580322265625,68.50434875488281,-66.93551635742188
1776870183921379600,6.876379638671875,-109.58387756347656,67.65473937988281,-67.07969665527344
1776870183931467500,6.886467529296875,-109.69410705566406,66.42677307128906,-66.83055114746094
1776870183941553700,6.8965537109375,-109.11941528320312,65.35353088378906,-66.66134643554688
1776870183951641600,6.9066416015625,-109.30970764160156,64.59904479980469,-66.59266662597656
1776870183961729500,6.9167294921875,-108.97706604003906,63.79118347167969,-65.8636474609375
1776870183971816400,6.92681640625,-108.47747802734375,63.06787109375,-65.32086181640625
1776870183981904400,6.936904296875,-109.08766174316406,62.19480895996094,-65.76991271972656
1776870183991991600,6.946991455078125,-109.23954772949219,61.18238830566406,-65.81935119628906
1776870184002078500,6.957078369140625,-108.38041687011719,60.289276123046875,-65.35665893554688
1776870184012165600,6.96716552734375,-108.22492980957031,59.49169921875,-65.51234436035156
1776870184022253600,6.977253662109375,-108.66783142089844,58.83735656738281,-65.77560424804688
1776870184032341500,6.987341552734375,-108.084716796875,57.91046142578125,-65.6241455078125
1776870184042428400,6.997428466796875,-108.02503967285156,57.29554748535156,-65.88749694824219
1776870184052516400,7.007516357421875,-107.55654907226562,56.349700927734375,-65.69480895996094
1776870184062604500,7.0176044921875,-107.26951599121094,55.77656555175781,-65.66444396972656
1776870184072693500,7.027693603515625,-107.61500549316406,55.237701416015625,-66.07395935058594
1776870184082782500,7.037782470703125,-107.09083557128906,54.776275634765625,-65.48330688476562
1776870184092871400,7.047871337890625,-107.66847229003906,54.18641662597656,-66.00736999511719
1776870184102957600,7.05795751953125,-108.04927062988281,53.61065673828125,-66.31864929199219
1776870184113045500,7.06804541015625,-107.86705017089844,53.708526611328125,-66.26918029785156
1776870184123132400,7.07813232421875,-107.13612365722656,53.494476318359375,-65.44241333007812
1776870184133221400,7.088221435546875,-106.58294677734375,53.55207824707031,-65.30809020996094
1776870184143309600,7.0983095703125,-106.854248046875,53.79350280761719,-65.28605651855469
1776870184153398500,7.1083984375,-107.04920959472656,53.996124267578125,-65.25572204589844
1776870184163487500,7.118487548828125,-107.91050720214844,54.0755615234375,-66.02766418457031
1776870184173573400,7.128573486328125,-107.70228576660156,54.38185119628906,-65.61550903320312
1776870184183661600,7.13866162109375,-107.675048828125,54.59526062011719,-65.48487854003906
1776870184193748500,7.14874853515625,-107.23664855957031,55.07548522949219,-65.26585388183594
1776870184203836400,7.15883642578125,-107.75550842285156,55.65521240234375,-65.58442687988281
1776870184213925600,7.168925537109375,-108.08706665039062,56.18165588378906,-65.71102905273438
1776870184224013600,7.179013671875,-108.23310852050781,56.83294677734375,-65.45416259765625
1776870184234102500,7.1891025390625,-108.64584350585938,57.26774597167969,-65.79487609863281
1776870184244191500,7.19919140625,-109.11894226074219,57.99351501464844,-65.75474548339844
1776870184254279700,7.20927978515625,-108.75611877441406,58.79722595214844,-65.4317626953125
1776870184264368600,7.21936865234375,-108.18792724609375,59.45048522949219,-64.73704528808594
1776870184274457300,7.229457275390625,-108.72763061523438,60.39628601074219,-65.11604309082031
1776870184284547600,7.239547607421875,-109.04838562011719,60.922210693359375,-65.14401245117188
1776870184294636500,7.249636474609375,-108.55503845214844,61.84394836425781,-64.82254028320312
1776870184304724500,7.259724365234375,-109.02265930175781,62.68370056152344,-65.03590393066406
1776870184314811400,7.269811279296875,-108.829345703125,63.415802001953125,-65.0291748046875
1776870184324899300,7.2798994140625,-109.2081298828125,64.38442993164062,-65.07162475585938
1776870184334987500,7.289987548828125,-109.43670654296875,65.50274658203125,-65.23828125
1776870184345074400,7.300074462890625,-108.74859619140625,66.2830810546875,-64.7193603515625
1776870184355162600,7.31016259765625,-109.58270263671875,67.27336120605469,-65.35310363769531
1776870184365249300,7.320249267578125,-108.87336730957031,68.11360168457031,-64.97465515136719
1776870184375336400,7.33033642578125,-109.78509521484375,69.10203552246094,-65.40292358398438
1776870184385424600,7.340424560546875,-108.75665283203125,69.89254760742188,-64.84024047851562
1776870184395512600,7.3505126953125,-108.84782409667969,71.05096435546875,-65.06805419921875
1776870184405601500,7.3606015625,-109.10411071777344,71.87150573730469,-65.3861083984375
1776870184415689500,7.370689453125,-109.12893676757812,72.66189575195312,-65.41949462890625
1776870184425776400,7.3807763671875,-109.52317810058594,73.64219665527344,-66.06402587890625
1776870184435864600,7.390864501953125,-109.15032958984375,74.60525512695312,-65.81022644042969
1776870184445952500,7.400952392578125,-108.763427734375,75.49420166015625,-65.82882690429688
1776870184456040700,7.411040771484375,-108.47720336914062,76.24093627929688,-65.571044921875
1776870184466127400,7.42112744140625,-108.75436401367188,77.34452819824219,-66.16792297363281
1776870184476213500,7.431213623046875,-107.92442321777344,78.72816467285156,-65.59793090820312
1776870184486300400,7.441300537109375,-107.98159790039062,79.36408996582031,-66.17303466796875
1776870184496387600,7.4513876953125,-107.02334594726562,80.17889404296875,-65.70887756347656
1776870184506476300,7.461476318359375,-106.97688293457031,81.06278991699219,-66.22074890136719
1776870184516564500,7.471564453125,-106.59107971191406,82.1123046875,-66.09989929199219
1776870184526653400,7.4816533203125,-106.88107299804688,82.69346618652344,-66.766845703125
1776870184536741400,7.491741455078125,-106.57638549804688,83.48817443847656,-67.14912414550781
1776870184546830300,7.501830322265625,-105.61306762695312,84.11573791503906,-66.88662719726562
1776870184556918500,7.51191845703125,-105.75364685058594,84.96279907226562,-67.05863952636719
1776870184567005400,7.52200537109375,-105.53401184082031,85.48701477050781,-67.47381591796875
1776870184577095400,7.532095458984375,-104.66893005371094,86.22679138183594,-67.69650268554688
1776870184587183400,7.542183349609375,-104.92608642578125,86.82901000976562,-68.34394836425781
1776870184597271600,7.552271484375,-104.37757873535156,87.49209594726562,-68.63374328613281
1776870184607360500,7.562360595703125,-103.80308532714844,88.01518249511719,-69.12509155273438
1776870184617449500,7.572449462890625,-103.62129211425781,88.72174072265625,-69.724609375
1776870184627536600,7.58253662109375,-103.09341430664062,89.17050170898438,-69.68876647949219
1776870184637624600,7.59262451171875,-102.84442138671875,89.68435668945312,-70.02540588378906
1776870184647711500,7.60271142578125,-102.81893920898438,90.24409484863281,-70.78260803222656
1776870184657799400,7.61279931640625,-102.13583374023438,90.63711547851562,-70.81150817871094
1776870184667889700,7.6228896484375,-102.03105163574219,90.98777770996094,-71.37596130371094
1776870184677977600,7.6329775390625,-101.68893432617188,91.36543273925781,-71.86196899414062
1776870184688065500,7.6430654296875,-101.2271728515625,91.80401611328125,-72.15193176269531
1776870184698153500,7.653153564453125,-100.8076171875,92.27230834960938,-72.66047668457031
1776870184708240400,7.663240478515625,-100.84465026855469,92.496337890625,-73.04531860351562
1776870184718327600,7.67332763671875,-100.43763732910156,93.10617065429688,-73.38166809082031
1776870184728415500,7.68341552734375,-100.26597595214844,93.60099792480469,-73.89328002929688
1776870184738503400,7.69350341796875,-99.75086975097656,93.96324157714844,-74.10345458984375
1776870184748590600,7.703590576171875,-100.80520629882812,94.06629943847656,-75.4998779296875
1776870184758678500,7.713678466796875,-99.37420654296875,94.54450988769531,-75.03692626953125
1776870184768765400,7.723765380859375,-98.48377990722656,95.10377502441406,-75.27627563476562
1776870184778852400,7.733852294921875,-97.79019165039062,95.50056457519531,-75.18309020996094
1776870184788939500,7.743939453125,-96.92008972167969,95.90693664550781,-75.34063720703125
1776870184799027500,7.75402734375,-97.21539306640625,96.11561584472656,-75.86479187011719
1776870184809115400,7.764115478515625,-96.56416320800781,96.28916931152344,-76.26145935058594
1776870184819203600,7.77420361328125,-95.59356689453125,96.87422180175781,-76.13455200195312
1776870184829291500,7.78429150390625,-94.9842529296875,97.37155151367188,-76.2911376953125
1776870184839377400,7.79437744140625,-94.08551025390625,97.80686950683594,-76.72216796875
1776870184849464300,7.80446435546875,-93.82235717773438,98.00679016113281,-77.01406860351562
1776870184859552500,7.814552490234375,-92.94029235839844,98.27737426757812,-76.96122741699219
1776870184869640700,7.824640625,-92.43109130859375,98.59487915039062,-77.37570190429688
1776870184879727600,7.8347275390625,-91.84921264648438,98.67117309570312,-77.41152954101562
1776870184889815600,7.844815673828125,-91.64688110351562,99.02729797363281,-77.6458740234375
1776870184899900400,7.854900390625,-90.64442443847656,99.44058227539062,-77.90243530273438
1776870184909988600,7.864988525390625,-90.30119323730469,99.53065490722656,-77.74400329589844
1776870184920076500,7.87507666015625,-89.78765869140625,99.55726623535156,-78.04324340820312
1776870184930164500,7.88516455078125,-89.4901123046875,100.06509399414062,-77.87745666503906
1776870184940252400,7.89525244140625,-89.04721069335938,99.96502685546875,-77.81637573242188
1776870184950339600,7.905339599609375,-88.81622314453125,99.87489318847656,-77.71974182128906
1776870184960427500,7.915427490234375,-88.3076171875,100.15347290039062,-77.65217590332031
1776870184970515500,7.925515380859375,-88.20506286621094,100.31796264648438,-77.85983276367188
1776870184980604700,7.935604736328125,-88.74008178710938,100.25904846191406,-77.95765686035156
1776870184990691600,7.945691650390625,-87.87153625488281,100.13409423828125,-77.41593933105469
1776870185000779500,7.955779541015625,-88.28715515136719,100.02001953125,-77.634765625
1776870185010867700,7.96586767578125,-88.22879028320312,100.04490661621094,-77.64035034179688
1776870185020954600,7.97595458984375,-88.27558898925781,100.246337890625,-77.20777893066406
1776870185031042600,7.98604248046875,-88.71076965332031,100.20892333984375,-77.7215576171875
1776870185041131500,7.996131591796875,-89.09672546386719,100.26162719726562,-77.89271545410156
1776870185051219500,8.006219482421875,-88.65010070800781,100.48614501953125,-77.81222534179688
1776870185061307400,8.016307373046875,-88.05563354492188,100.10249328613281,-77.83575439453125
1776870185071394600,8.02639453125,-90.56706237792969,100.15934753417969,-80.21055603027344
1776870185081482800,8.036482666015624,-88.64942932128906,100.22744750976562,-78.86955261230469
1776870185091569700,8.046569580078126,-88.46945190429688,100.142333984375,-78.94627380371094
1776870185101657600,8.05665771484375,-87.82736206054688,100.391845703125,-78.59208679199219
1776870185111744800,8.066744873046876,-87.90695190429688,100.41552734375,-79.05122375488281
1776870185121831700,8.076831787109375,-87.91398620605469,100.15150451660156,-78.98246765136719
1776870185131919600,8.086919677734375,-87.53007507324219,100.239501953125,-79.00489807128906
1776870185142006500,8.097006591796875,-86.59051513671875,100.36280822753906,-78.16700744628906
1776870185152093700,8.10709375,-86.93406677246094,100.563232421875,-78.58949279785156
1776870185162181600,8.117181640625,-87.45085144042969,100.488037109375,-78.78636169433594
1776870185172269600,8.12726953125,-87.08114624023438,100.40359497070312,-78.51231384277344
1776870185182358500,8.137358642578125,-86.85591125488281,100.51242065429688,-78.50743103027344
1776870185192447700,8.14744775390625,-86.80520629882812,100.72769165039062,-78.41209411621094
1776870185202534400,8.157534423828125,-87.45382690429688,100.57438659667969,-78.54611206054688
1776870185212622600,8.16762255859375,-87.15396118164062,100.60174560546875,-78.22442626953125
1776870185222709800,8.177709716796874,-87.31117248535156,100.58184814453125,-78.55520629882812
1776870185232796400,8.18779638671875,-87.59480285644531,100.52371215820312,-78.51507568359375
1776870185242884600,8.197884521484376,-87.70167541503906,100.326171875,-78.36929321289062
1776870185252972500,8.20797265625,-87.62043762207031,100.72238159179688,-78.38552856445312
1776870185263061500,8.2180615234375,-87.41058349609375,100.35914611816406,-78.267822265625
1776870185273148400,8.2281484375,-87.90585327148438,100.49290466308594,-78.32562255859375
1776870185283236600,8.238236572265626,-88.14402770996094,100.55905151367188,-78.37925720214844
1776870185293325600,8.24832568359375,-87.44462585449219,100.49534606933594,-77.92405700683594
1776870185303413500,8.25841357421875,-88.05441284179688,100.52409362792969,-77.8087158203125
1776870185313501700,8.268501708984376,-88.05758666992188,100.3905029296875,-77.71861267089844
1776870185323588600,8.278588623046875,-88.33590698242188,100.58575439453125,-78.08039855957031
1776870185333677600,8.288677490234376,-88.37710571289062,100.49270629882812,-78.28109741210938
1776870185343765500,8.298765625,-88.22044372558594,100.30960083007812,-77.85525512695312
1776870185353852400,8.308852294921875,-88.31147766113281,100.4503173828125,-77.8858642578125
1776870185363941400,8.31894140625,-88.16470336914062,100.55242919921875,-77.82746887207031
1776870185374030600,8.329030517578126,-88.44332885742188,100.45326232910156,-77.93148803710938
1776870185384117500,8.339117431640625,-89.05723571777344,100.35092163085938,-78.52787780761719
1776870185394205700,8.349205810546875,-88.74507141113281,100.46177673339844,-78.15846252441406
1776870185404293600,8.359293701171875,-89.42556762695312,100.57667541503906,-78.71279907226562
1776870185414380500,8.369380615234375,-89.11752319335938,100.35078430175781,-78.186279296875
1776870185424466700,8.379466796875,-89.2017822265625,100.18850708007812,-78.32928466796875
1776870185434553600,8.3895537109375,-89.19425964355469,100.44978332519531,-78.20559692382812
1776870185444639500,8.399639404296876,-89.89669799804688,100.40617370605469,-78.77659606933594
1776870185454725400,8.409725341796875,-89.15774536132812,100.38798522949219,-78.25703430175781
1776870185464813600,8.4198134765625,-89.87478637695312,100.08828735351562,-78.68000793457031
1776870185474899500,8.4298994140625,-91.14985656738281,100.38087463378906,-79.55662536621094
1776870185484987400,8.4399873046875,-88.86862182617188,100.22488403320312,-77.63099670410156
1776870185495074600,8.450074462890624,-89.77212524414062,100.35395812988281,-78.19355773925781
1776870185505162500,8.46016259765625,-90.07154846191406,100.17355346679688,-78.53439331054688
1776870185515250400,8.47025048828125,-89.17626953125,100.40489196777344,-77.93359375
1776870185525338600,8.480338623046874,-89.08274841308594,100.08203125,-77.52047729492188
1776870185535424500,8.490424560546876,-89.561279296875,100.389892578125,-78.32781982421875
1776870185545512400,8.500512451171875,-89.49201965332031,100.31170654296875,-78.12734985351562
1776870185555599400,8.510599365234375,-89.5960693359375,100.48648071289062,-78.30284118652344
1776870185565686500,8.5206865234375,-89.40847778320312,100.16047668457031,-77.80570983886719
1776870185575773400,8.5307734375,-90.60525512695312,100.24827575683594,-78.89549255371094
1776870185585858600,8.540858642578126,-89.46211242675781,100.22381591796875,-77.88809204101562
1776870185595944700,8.55094482421875,-89.14857482910156,100.09170532226562,-77.65611267089844
1776870185606029600,8.561029541015625,-89.58778381347656,100.062255859375,-77.83091735839844
1776870185616115500,8.571115478515624,-89.46617126464844,100.24099731445312,-77.84187316894531
1776870185626202600,8.58120263671875,-89.89033508300781,100.13084411621094,-78.07524108886719
1776870185636288800,8.591288818359375,-89.78306579589844,100.08656311035156,-78.12690734863281
1776870185646375700,8.601375732421875,-89.48263549804688,100.21563720703125,-77.73060607910156
1776870185656460500,8.61146044921875,-89.378662109375,100.19532775878906,-77.93479919433594
1776870185666547500,8.62154736328125,-88.80760192871094,100.12484741210938,-77.78317260742188
1776870185676634600,8.631634521484376,-89.2464599609375,100.16322326660156,-77.59858703613281
1776870185686720500,8.641720458984375,-89.25566101074219,100.03984069824219,-77.79122924804688
1776870185696807700,8.6518076171875,-89.04664611816406,100.13137817382812,-77.64546203613281
1776870185706892500,8.661892578125,-89.06886291503906,100.1256103515625,-77.89263916015625
1776870185716978400,8.671978515625,-88.9710693359375,100.3087158203125,-77.6513671875
1776870185727064600,8.682064697265625,-89.33819580078125,100.04264831542969,-77.63507080078125
1776870185737150500,8.692150390625,-89.24708557128906,99.95518493652344,-77.48994445800781
1776870185747237400,8.7022373046875,-88.90463256835938,100.25172424316406,-77.46742248535156
1776870185757322500,8.712322509765626,-88.97332763671875,100.21343994140625,-77.52888488769531
1776870185767409700,8.72240966796875,-89.8203125,99.93501281738281,-78.20663452148438
1776870185777496600,8.73249658203125,-89.29336547851562,100.04208374023438,-77.76284790039062
1776870185787582700,8.742582763671875,-89.31260681152344,100.09744262695312,-77.50007629394531
1776870185797670700,8.752670654296875,-89.55198669433594,100.01205444335938,-77.77584838867188
1776870185807757600,8.762757568359374,-89.31007385253906,99.95356750488281,-77.63218688964844
1776870185817844700,8.7728447265625,-89.63911437988281,100.07150268554688,-78.03663635253906
1776870185827932700,8.7829326171875,-89.21946716308594,99.97280883789062,-77.75494384765625
1776870185838020600,8.7930205078125,-89.6495361328125,99.84175109863281,-77.98756408691406
1776870185848107500,8.803107421875,-89.24580383300781,99.89006042480469,-77.77091979980469
1776870185858196500,8.813196533203126,-89.85493469238281,99.91647338867188,-78.03157043457031
1776870185868283400,8.823283447265625,-90.68170166015625,99.76223754882812,-78.38706970214844
1776870185878371600,8.83337158203125,-90.43362426757812,99.83540344238281,-77.9986572265625
1776870185888458500,8.84345849609375,-91.06640625,99.4334716796875,-78.22633361816406
1776870185898546000,8.8535458984375,-90.83125305175781,99.45463562011719,-78.00706481933594
1776870185908633900,8.8636337890625,-91.06991577148438,99.36146545410156,-77.99449157714844
1776870185918721800,8.8737216796875,-91.37159729003906,99.14773559570312,-78.18821716308594
1776870185928810200,8.883810302734375,-91.55191040039062,99.04310607910156,-77.93568420410156
1776870185938898200,8.893898193359375,-91.91853332519531,99.05276489257812,-78.15428161621094
1776870185948987000,8.90398681640625,-92.41015625,98.62704467773438,-78.41644287109375
1776870185959077000,8.9140771484375,-92.85015869140625,98.38267517089844,-78.41990661621094
1776870185969166000,8.924166015625,-92.51100158691406,98.49607849121094,-78.04792785644531
1776870185979254000,8.93425390625,-92.63887023925781,98.17800903320312,-77.56120300292969
1776870185989341000,8.9443408203125,-93.34475708007812,98.09426879882812,-77.87088012695312
1776870185999430000,8.954429931640625,-93.53643798828125,97.82493591308594,-77.984619140625
1776870186009519000,8.96451904296875,-93.91567993164062,97.71102905273438,-78.22286987304688
1776870186019607000,8.97460693359375,-93.80656433105469,97.32168579101562,-78.35002136230469
1776870186029696000,8.984696044921876,-93.79911804199219,97.22099304199219,-78.1700439453125
1776870186039783000,8.994782958984375,-94.27056884765625,97.04020690917969,-78.42788696289062
1776870186049872000,9.004871826171875,-94.84486389160156,96.87406921386719,-78.73454284667969
1776870186059959800,9.014959716796875,-95.674072265625,96.75233459472656,-79.31813049316406
1776870186070048000,9.025048095703125,-95.6187744140625,96.57118225097656,-79.43682861328125
1776870186080136000,9.035135986328125,-96.59255981445312,96.34841918945312,-80.23631286621094
1776870186090224000,9.04522412109375,-96.65229797363281,96.24008178710938,-80.53309631347656
1776870186100313900,9.05531396484375,-95.66865539550781,95.87867736816406,-79.44441223144531
1776870186110402000,9.065402099609376,-96.81675720214844,95.90338134765625,-80.3255615234375
1776870186120491000,9.075490966796876,-96.37567138671875,95.40403747558594,-79.78057861328125
1776870186130580000,9.085580078125,-96.55033874511719,95.3685302734375,-79.8690185546875
1776870186140669200,9.095669189453124,-97.39804077148438,94.97308349609375,-80.25178527832031
1776870186150758100,9.105758056640624,-96.94013977050781,94.6256103515625,-79.28964233398438
1776870186160848000,9.115847900390625,-97.91352844238281,94.383544921875,-79.7449951171875
1776870186170938000,9.125938232421875,-98.56106567382812,94.19972229003906,-79.54872131347656
1776870186181026000,9.136026123046875,-99.10980224609375,93.898193359375,-79.26898193359375
1776870186191115000,9.146114990234375,-99.37466430664062,93.79034423828125,-78.86015319824219
1776870186201204000,9.156203857421875,-100.17877197265625,93.349853515625,-78.79985046386719
1776870186211292000,9.1662919921875,-100.1181640625,93.26832580566406,-78.5128173828125
1776870186221380900,9.176380859375,-100.93128967285156,92.98042297363281,-78.15785217285156
1776870186231470000,9.186469970703126,-101.17362976074219,92.64231872558594,-77.81605529785156
1776870186241558000,9.19655810546875,-101.88993835449219,92.15208435058594,-77.37931823730469
1776870186251646000,9.20664599609375,-102.37261962890625,91.90556335449219,-76.90830993652344
1776870186261733000,9.216733154296875,-102.38336181640625,91.62620544433594,-76.163330078125
1776870186271820000,9.226820068359375,-102.24162292480469,91.72920227050781,-75.36981201171875
1776870186281907200,9.2369072265625,-102.70797729492188,91.48246765136719,-75.03697204589844
1776870186291995100,9.2469951171875,-102.94877624511719,91.33792114257812,-74.31588745117188
1776870186302082000,9.25708203125,-103.05502319335938,90.71908569335938,-73.67701721191406
1776870186312169000,9.2671689453125,-104.01193237304688,90.46263122558594,-73.75140380859375
1776870186322256100,9.277256103515626,-103.93525695800781,90.02825927734375,-73.03408813476562
1776870186332343000,9.287343017578126,-104.40135192871094,89.36361694335938,-72.62547302246094
1776870186342430200,9.29743017578125,-105.591064453125,88.71189880371094,-72.37135314941406
1776870186352519000,9.307518798828125,-105.11396789550781,88.20127868652344,-71.14183044433594
1776870186362606000,9.317606201171875,-105.64730834960938,87.34004211425781,-70.99446105957031
1776870186372695000,9.327695068359375,-106.55447387695312,86.76921081542969,-70.51251220703125
1776870186382783000,9.337782958984375,-107.11532592773438,85.75628662109375,-70.2088623046875
1776870186392869000,9.347869140625,-107.67280578613281,84.99119567871094,-70.21322631835938
1776870186402956000,9.3579560546875,-107.67921447753906,84.11367797851562,-69.60542297363281
1776870186413043000,9.36804296875,-108.24771118164062,83.31053161621094,-69.39602661132812
1776870186423129000,9.378129150390626,-108.74339294433594,82.52836608886719,-69.11968994140625
1776870186433217000,9.388217041015626,-108.95726013183594,81.81744384765625,-68.60551452636719
1776870186443304000,9.398303955078125,-109.15969848632812,80.81454467773438,-68.34465026855469
1776870186453391000,9.40839111328125,-109.10910034179688,79.94232177734375,-67.70652770996094
1776870186463479000,9.41847900390625,-109.76400756835938,78.93083190917969,-67.37879943847656
1776870186473566000,9.42856591796875,-109.51480102539062,78.27284240722656,-67.26228332519531
1776870186483653000,9.438653076171875,-110.01383972167969,77.5858154296875,-67.32530212402344
1776870186493740000,9.448739990234374,-110.21463012695312,76.47892761230469,-67.18727111816406
1776870186503827200,9.4588271484375,-110.42626953125,75.72042846679688,-67.11482238769531
1776870186513914000,9.4689140625,-111.28547668457031,74.54789733886719,-67.58918762207031
1776870186524001000,9.4790009765625,-110.28759765625,73.741943359375,-66.54605102539062
1776870186534088000,9.489087890625,-110.4599609375,73.03216552734375,-66.42070007324219
1776870186544176000,9.499176025390625,-110.05491638183594,72.01486206054688,-65.98313903808594
1776870186554263000,9.509262939453125,-109.89176940917969,70.99320983886719,-65.46176147460938
1776870186564351000,9.51935107421875,-110.38194274902344,70.11012268066406,-66.06991577148438
1776870186574439200,9.529439208984375,-110.45237731933594,69.11897277832031,-65.55419921875
1776870186584526000,9.539526123046874,-110.42924499511719,68.218017578125,-65.53007507324219
1776870186594615000,9.549614990234375,-110.09072875976562,67.23281860351562,-65.39222717285156
1776870186604704000,9.5597041015625,-110.32038879394531,66.05049133300781,-65.40016174316406
1776870186614793000,9.56979296875,-109.86250305175781,65.10955810546875,-65.53395080566406
1776870186624880000,9.579880126953125,-110.21527099609375,63.94793701171875,-65.79962158203125
1776870186634968000,9.589968017578125,-109.83743286132812,62.9188232421875,-65.9005126953125
1776870186645056000,9.600055908203124,-109.69271850585938,61.954315185546875,-65.87359619140625
1776870186655144000,9.61014404296875,-109.61689758300781,60.96635437011719,-65.94805908203125
1776870186665232000,9.62023193359375,-109.69593811035156,59.95552062988281,-65.85653686523438
1776870186675319000,9.630319091796874,-109.49728393554688,59.125335693359375,-65.94891357421875
1776870186685405000,9.640405029296875,-110.27885437011719,58.14118957519531,-66.30709838867188
1776870186695491000,9.650490966796875,-109.75505065917969,57.09571838378906,-66.13623046875
1776870186705578000,9.660577880859375,-108.98898315429688,56.28935241699219,-65.72776794433594
1776870186715665200,9.6706650390625,-109.42594909667969,55.4324951171875,-66.00942993164062
1776870186725753000,9.680753173828125,-109.40922546386719,54.75709533691406,-65.98828125
1776870186735840000,9.690840087890624,-109.37141418457031,54.136260986328125,-66.26042175292969
1776870186745926000,9.70092578125,-108.65066528320312,53.46083068847656,-65.9046630859375
1776870186756015000,9.71101513671875,-108.05751037597656,53.115447998046875,-65.76025390625
1776870186766102000,9.72110205078125,-107.61825561523438,52.44126892089844,-65.22767639160156
1776870186776190000,9.73118994140625,-108.166015625,52.18731689453125,-65.93704223632812
1776870186786278000,9.74127783203125,-107.80203247070312,52.084136962890625,-65.3592529296875
1776870186796366000,9.751365966796875,-107.50404357910156,51.550933837890625,-65.18975830078125
1776870186806454000,9.7614541015625,-107.41683959960938,51.83863830566406,-65.35667419433594
1776870186816541000,9.771541015625,-107.40113830566406,52.079193115234375,-65.24424743652344
1776870186826628900,9.78162890625,-107.65165710449219,52.110198974609375,-65.2967529296875
1776870186836716000,9.791716064453125,-107.95388793945312,52.192596435546875,-65.16653442382812
1776870186846803000,9.801802978515624,-107.35055541992188,52.813751220703125,-64.67774963378906
1776870186856892200,9.81189208984375,-107.80322265625,53.187164306640625,-64.68112182617188
1776870186866982000,9.82198193359375,-108.13041687011719,53.54539489746094,-64.73455810546875
1776870186877069800,9.83206982421875,-108.60215759277344,54.05885314941406,-64.99925231933594
1776870186887157000,9.842156982421875,-108.49569702148438,54.51338195800781,-64.6748046875
1776870186897248500,9.85224853515625,-108.48098754882812,55.1246337890625,-64.52061462402344
1776870186907337500,9.86233740234375,-108.42860412597656,56.02778625488281,-64.70013427734375
1776870186917425400,9.87242529296875,-109.02009582519531,56.658843994140625,-64.64064025878906
1776870186927514600,9.8825146484375,-109.05747985839844,57.418487548828125,-64.779541015625
1776870186937602600,9.8926025390625,-109.28964233398438,58.15693664550781,-64.55007934570312
1776870186947690500,9.9026904296875,-109.37049865722656,58.81663513183594,-64.48179626464844
1776870186957777400,9.91277734375,-109.90205383300781,60.03193664550781,-64.86752319335938
1776870186967865300,9.922865234375,-109.90632629394531,60.59727478027344,-64.50375366210938
1776870186977952500,9.932952392578125,-110.55076599121094,61.42353820800781,-65.06834411621094
1776870186988040400,9.94304052734375,-110.29010009765625,62.27748107910156,-64.57795715332031
1776870186998128400,9.95312841796875,-110.42843627929688,63.08158874511719,-64.87702941894531
1776870187008217600,9.963217529296875,-109.90252685546875,64.08644104003906,-64.40632629394531
1776870187018306600,9.973306640625,-110.52911376953125,64.89590454101562,-64.58721923828125
1776870187028393500,9.9833935546875,-110.35990905761719,65.71871948242188,-64.71571350097656
1776870187038481400,9.9934814453125,-111.47608947753906,66.69024658203125,-65.88847351074219
1776870187048568600,10.003568603515625,-110.320556640625,67.74090576171875,-65.04122924804688
1776870187058656500,10.013656494140625,-111.19334411621094,68.80154418945312,-65.65951538085938
1776870187068744400,10.023744384765624,-110.09268188476562,69.96302795410156,-65.19242858886719
1776870187078831400,10.033831298828124,-110.17071533203125,70.72904968261719,-65.2022705078125
1776870187088918500,10.04391845703125,-110.64242553710938,71.81800842285156,-65.48379516601562
1776870187099004400,10.05400439453125,-110.62455749511719,72.73603820800781,-65.1370849609375
1776870187109090600,10.064090576171875,-110.28440856933594,73.91307067871094,-65.34112548828125
1776870187119177500,10.074177490234375,-110.25604248046875,74.47305297851562,-65.4759521484375
1776870187129265700,10.084265625,-110.2889404296875,75.54446411132812,-65.4793701171875
1776870187139352600,10.0943525390625,-109.68399047851562,76.62174987792969,-65.18608093261719
1776870187149438700,10.104438720703126,-109.75950622558594,77.33604431152344,-65.22610473632812
1776870187159523600,10.114523681640625,-109.25035095214844,78.24655151367188,-65.21746826171875
1776870187169609500,10.124609375,-108.82620239257812,79.21884155273438,-65.12017822265625
1776870187179696600,10.134696533203124,-108.53868103027344,80.13621520996094,-64.52134704589844
1776870187189783600,10.144783447265626,-108.26423645019531,81.08035278320312,-64.88877868652344
1776870187199869400,10.154869384765625,-109.11599731445312,81.67620849609375,-65.931884765625
1776870187209956400,10.164956298828125,-107.38082885742188,82.6007080078125,-65.02513122558594
1776870187220043500,10.17504345703125,-106.75215148925781,83.40330505371094,-64.95536804199219
1776870187230130400,10.18513037109375,-106.56826782226562,84.41845703125,-65.2821044921875
1776870187240218400,10.19521826171875,-106.00279235839844,85.35629272460938,-65.61538696289062
1776870187250305500,10.205305419921874,-105.28938293457031,86.20880126953125,-65.54878234863281
1776870187260392400,10.215392333984376,-105.69619750976562,86.87178039550781,-66.15606689453125
1776870187270480400,10.22548046875,-105.24067687988281,87.4842529296875,-66.75790405273438
1776870187280568600,10.235568603515626,-104.372314453125,88.1298828125,-66.49658203125
1776870187290656500,10.245656494140626,-104.49090576171875,88.62861633300781,-66.88520812988281
1776870187300744400,10.255744384765626,-104.24386596679688,89.05278015136719,-66.80180358886719
1776870187310832400,10.265832275390625,-103.88484191894531,89.44515991210938,-67.19381713867188
1776870187320921300,10.27592138671875,-103.24336242675781,89.95327758789062,-67.12728881835938
1776870187331009300,10.28600927734375,-103.52525329589844,90.30413818359375,-67.84173583984375
1776870187341095400,10.296095458984375,-103.71781921386719,90.62919616699219,-68.378662109375
1776870187351181600,10.306181640625,-103.40666198730469,90.98193359375,-69.03524780273438
1776870187361268500,10.3162685546875,-102.81343078613281,91.31632995605469,-69.17027282714844
1776870187371356400,10.3263564453125,-102.59303283691406,91.70307922363281,-69.65995788574219
1776870187381443600,10.336443603515624,-101.97027587890625,92.20527648925781,-69.97952270507812
1776870187391531500,10.346531494140624,-102.3271484375,92.39054870605469,-70.55162048339844
1776870187401618400,10.356618408203126,-101.6099853515625,92.75698852539062,-70.94447326660156
1776870187411706400,10.366706298828126,-101.13592529296875,93.13250732421875,-71.07028198242188
1776870187421794300,10.376794189453125,-100.93959045410156,93.73426818847656,-71.42033386230469
1776870187431882500,10.386882568359376,-100.69023132324219,94.23733520507812,-71.8592529296875
1776870187441970700,10.396970703125,-100.39888000488281,94.49143981933594,-71.950927734375
1776870187452057600,10.4070576171875,-99.77561950683594,94.76411437988281,-72.33189392089844
1776870187462144500,10.41714453125,-99.20341491699219,95.11054992675781,-72.66983032226562
1776870187472230400,10.42723046875,-98.29295349121094,95.40754699707031,-72.74288940429688
1776870187482316500,10.437316650390626,-98.52528381347656,95.58650207519531,-73.32302856445312
1776870187492403500,10.447403564453126,-97.87258911132812,95.92123413085938,-73.59262084960938
1776870187502489600,10.457489501953125,-97.35321044921875,96.40689086914062,-73.97993469238281
1776870187512574500,10.467574462890624,-96.6436767578125,97.05824279785156,-74.11094665527344
1776870187522660600,10.47766064453125,-95.65554809570312,97.43905639648438,-74.28787231445312
1776870187532746500,10.48774658203125,-95.63957214355469,97.60078430175781,-74.81916809082031
1776870187542832600,10.49783251953125,-94.96554565429688,97.98649597167969,-75.23796081542969
1776870187552918500,10.50791845703125,-94.58425903320312,98.31626892089844,-75.56744384765625
1776870187563005400,10.51800537109375,-94.0452880859375,98.63847351074219,-75.90011596679688
1776870187573092400,10.52809228515625,-93.44126892089844,99.02464294433594,-75.94950866699219
1776870187583178500,10.538178466796875,-92.47099304199219,98.97344970703125,-75.9549560546875
1776870187593265400,10.548265380859375,-92.2198486328125,99.29371643066406,-76.43087768554688
1776870187603352600,10.5583525390625,-92.16342163085938,99.31820678710938,-76.61033630371094
1776870187613439500,10.568439453125,-90.98736572265625,99.81460571289062,-76.32386779785156
1776870187623526700,10.578526611328124,-90.66851806640625,99.88645935058594,-76.46562194824219
1776870187633614600,10.588614501953124,-90.18595886230469,100.10101318359375,-76.5758056640625
1776870187643702500,10.59870263671875,-90.05416870117188,100.04425048828125,-76.808349609375
1776870187653789400,10.60878955078125,-90.34152221679688,100.01736450195312,-77.41043090820312
1776870187663877400,10.61887744140625,-89.19355773925781,100.13714599609375,-76.62028503417969
1776870187673964500,10.628964599609375,-89.45645141601562,100.15989685058594,-77.04812622070312
1776870187684050400,10.639050537109375,-88.93487548828125,100.20854187011719,-76.62939453125
1776870187694137600,10.6491376953125,-88.80599975585938,99.95362854003906,-76.69137573242188
1776870187704225500,10.6592255859375,-88.69595336914062,100.35989379882812,-76.7178955078125
1776870187714311700,10.669311767578124,-88.47381591796875,100.55386352539062,-76.56883239746094
1776870187724398600,10.679398681640626,-87.99942016601562,100.38076782226562,-76.28788757324219
1776870187734487600,10.689487548828126,-87.44549560546875,100.42778015136719,-76.2550048828125
1776870187744574500,10.699574462890626,-87.62973022460938,100.72030639648438,-76.31085205078125
1776870187754662400,10.709662353515625,-87.59963989257812,100.64976501464844,-76.11038208007812
1776870187764750600,10.71975048828125,-87.80142211914062,100.65928649902344,-76.01364135742188
1776870187774838500,10.729838623046875,-87.88639831542969,100.57858276367188,-76.22247314453125
1776870187784926500,10.739926513671875,-88.4886474609375,100.51451110839844,-76.68246459960938
1776870187795014700,10.7500146484375,-88.72146606445312,100.40469360351562,-76.65638732910156
1776870187805100500,10.7601005859375,-88.47299194335938,100.35638427734375,-76.53086853027344
1776870187815188500,10.7701884765625,-88.36180114746094,100.47348022460938,-76.56973266601562
1776870187825275400,10.780275390625,-88.60520935058594,100.32951354980469,-76.71354675292969
1776870187835361500,10.790361572265626,-88.86871337890625,100.28884887695312,-76.74403381347656
1776870187845449500,10.800449462890626,-88.63267517089844,100.29931640625,-76.37466430664062
1776870187855536400,10.810536376953126,-88.92703247070312,99.88179016113281,-76.38636779785156
1776870187865623600,10.82062353515625,-89.29962158203125,100.18888854980469,-76.20803833007812
1776870187875708700,10.830708740234375,-89.6761474609375,100.04881286621094,-76.5361328125
1776870187885795600,10.840795654296874,-89.25411987304688,100.05113220214844,-75.91265869140625
1776870187895878700,10.850878662109375,-89.11273193359375,100.10157775878906,-76.07632446289062
1776870187905963800,10.8609638671875,-88.83163452148438,99.98667907714844,-75.807373046875
1776870187916048600,10.871048583984376,-89.88529968261719,99.95089721679688,-76.38548278808594
1776870187926134500,10.881134521484375,-89.45329284667969,100.02470397949219,-76.22674560546875
1776870187936221700,10.8912216796875,-89.55316162109375,99.75553894042969,-75.97013854980469
1776870187946308600,10.90130859375,-89.45451354980469,99.95150756835938,-75.81976318359375
1776870187956393700,10.911393798828126,-89.82929992675781,100.16581726074219,-76.20957946777344
1776870187966480000,10.92147998046875,-89.91471862792969,100.13809204101562,-76.232177734375
1776870187976564700,10.931564697265625,-89.26385498046875,100.29519653320312,-76.06578063964844
1776870187986649900,10.94164990234375,-89.37637329101562,100.10595703125,-76.12535095214844
1776870187996735500,10.951735595703125,-89.28619384765625,100.27056884765625,-76.21063232421875
1776870188006820600,10.961820556640625,-89.53251647949219,100.17434692382812,-76.56317138671875
1776870188016906800,10.97190673828125,-89.33251953125,100.20039367675781,-76.77127075195312
1776870188026992600,10.98199267578125,-89.310302734375,100.32112121582031,-76.76191711425781
1776870188037079600,10.99207958984375,-88.43083190917969,100.31755065917969,-76.48045349121094
1776870188047167700,11.002167724609375,-88.89518737792969,100.52995300292969,-76.74203491210938
1776870188057254700,11.012254638671875,-88.58628845214844,100.37112426757812,-76.50009155273438
1776870188067341600,11.022341552734375,-88.7298583984375,100.38552856445312,-76.57878112792969
1776870188077427700,11.032427734375,-88.53645324707031,100.47737121582031,-76.53216552734375
1776870188087513600,11.042513671875,-88.03108215332031,100.76193237304688,-75.95980834960938
1776870188097599700,11.052599853515625,-88.29017639160156,100.55616760253906,-75.9556884765625
1776870188107685600,11.062685546875,-88.50259399414062,100.30982971191406,-76.33837890625
1776870188117772500,11.0727724609375,-88.20329284667969,100.31538391113281,-76.14608764648438
1776870188127859700,11.082859619140624,-88.90310668945312,100.42144775390625,-76.7503662109375
1776870188137948700,11.09294873046875,-88.17291259765625,100.55772399902344,-76.35476684570312
1776870188148036600,11.10303662109375,-88.34611511230469,100.32386779785156,-76.55111694335938
1776870188158122800,11.113122802734376,-88.56852722167969,100.39584350585938,-76.86468505859375
1776870188168208600,11.123208740234375,-88.56370544433594,100.37030029296875,-76.59751892089844
1776870188178295600,11.133295654296875,-88.73831176757812,100.38313293457031,-76.84123229980469
1776870188188383500,11.143383544921875,-88.3544921875,100.45037841796875,-76.42585754394531
1776870188198471700,11.1534716796875,-89.41749572753906,100.20921325683594,-77.38862609863281
1776870188208558600,11.16355859375,-88.51786804199219,100.34822082519531,-76.70108032226562
1776870188218644700,11.173644775390626,-89.07832336425781,100.43531799316406,-76.8541259765625
1776870188228731600,11.183731689453126,-89.20249938964844,100.25128173828125,-76.86454772949219
1776870188238819600,11.193819580078125,-88.260009765625,100.18125915527344,-76.22315979003906
1776870188248905700,11.20390576171875,-88.43183898925781,100.33367919921875,-76.53807067871094
1776870188258991600,11.21399169921875,-88.17669677734375,100.21269226074219,-76.07853698730469
1776870188269079800,11.224079833984375,-88.21755981445312,100.58929443359375,-76.23764038085938
1776870188279166700,11.234166748046874,-88.26512145996094,100.4984130859375,-76.40724182128906
1776870188289253600,11.244253662109376,-88.54942321777344,100.27104187011719,-76.2747802734375
1776870188299339800,11.25433984375,-88.04689025878906,100.55644226074219,-75.97041320800781
1776870188309426700,11.2644267578125,-88.54853820800781,100.40750122070312,-76.13906860351562
1776870188319513600,11.274513671875,-88.017333984375,100.36892700195312,-75.91844177246094
1776870188329601800,11.284601806640625,-88.60110473632812,100.15992736816406,-76.22166442871094
1776870188339687700,11.294687744140624,-88.31234741210938,100.58195495605469,-76.56173706054688
1776870188349774600,11.304774658203126,-88.37799072265625,100.32048034667969,-76.51676940917969
1776870188359863800,11.31486376953125,-88.27151489257812,100.34700012207031,-76.22711181640625
1776870188369951700,11.32495166015625,-88.03611755371094,100.24468994140625,-76.140869140625
1776870188380040700,11.335040771484374,-88.50616455078125,100.6026611328125,-76.63360595703125
1776870188390127600,11.345127685546874,-88.04702758789062,100.50074768066406,-76.54449462890625
1776870188400214800,11.35521484375,-88.21896362304688,100.40438842773438,-76.71240234375
1776870188410301700,11.3653017578125,-87.57554626464844,100.28398132324219,-76.29434204101562
1776870188420387800,11.375387939453125,-87.64100646972656,100.36239624023438,-76.42095947265625
1776870188430474800,11.385474853515625,-88.44511413574219,100.50935363769531,-77.06382751464844
1776870188440561700,11.395561767578124,-88.07688903808594,100.15621948242188,-76.49250793457031
1776870188450650600,11.405650634765625,-88.34663391113281,100.41864013671875,-76.62013244628906
1776870188460739600,11.415739501953125,-88.27104187011719,100.1790771484375,-76.48060607910156
1776870188470827500,11.42582763671875,-88.84950256347656,100.25946044921875,-76.73463439941406
1776870188480915700,11.435915771484375,-89.41136169433594,100.23013305664062,-76.85035705566406
1776870188491003600,11.446003662109375,-89.475830078125,99.96110534667969,-77.0562744140625
1776870188501092600,11.456092529296875,-89.20426940917969,100.13487243652344,-77.17141723632812
1776870188511182800,11.466182861328125,-89.03160095214844,99.99827575683594,-76.72705078125
1776870188521270800,11.476270751953125,-89.69775390625,99.67276000976562,-76.84820556640625
1776870188531359700,11.48635986328125,-90.75738525390625,99.6756591796875,-77.78736877441406
1776870188541447700,11.49644775390625,-90.74806213378906,99.19580078125,-77.57087707519531
1776870188551535600,11.50653564453125,-90.59097290039062,99.33296203613281,-77.46589660644531
1776870188561623600,11.51662353515625,-91.04624938964844,99.00289916992188,-77.19273376464844
1776870188571713800,11.5267138671875,-91.201416015625,99.01287841796875,-77.2978515625
1776870188581800700,11.53680078125,-91.5616455078125,98.904541015625,-77.32548522949219
1776870188591885600,11.546885498046874,-92.75343322753906,98.3428955078125,-77.65592956542969
1776870188601973800,11.556973876953125,-93.43218994140625,98.28147888183594,-77.4630126953125
1776870188612060700,11.567060791015624,-92.94877624511719,98.12629699707031,-76.96049499511719
1776870188622146600,11.577146484375,-93.89035034179688,97.87734985351562,-77.15142822265625
1776870188632233700,11.587233642578125,-94.34011840820312,97.80168151855469,-77.14447021484375
1776870188642320600,11.597320556640625,-94.62240600585938,97.67771911621094,-77.17324829101562
1776870188652408600,11.60740869140625,-95.32124328613281,97.53254699707031,-77.45590209960938
1776870188662497800,11.617497802734375,-93.87637329101562,97.4405517578125,-76.55812072753906
1776870188672586800,11.627586669921875,-94.55131530761719,97.44224548339844,-76.77827453613281
1776870188682675700,11.63767578125,-94.95277404785156,96.98504638671875,-77.144775390625
1776870188692764700,11.6477646484375,-95.23283386230469,97.03253173828125,-77.23243713378906
1776870188702851800,11.657851806640625,-95.57601928710938,96.883544921875,-77.72966003417969
1776870188712938800,11.667938720703125,-95.6444091796875,96.53599548339844,-77.60212707519531
1776870188723027700,11.67802783203125,-95.82620239257812,96.27825927734375,-77.70980834960938
1776870188733114600,11.688114501953125,-95.70130920410156,95.78715515136719,-77.4495849609375
1776870188743202600,11.69820263671875,-96.92646789550781,95.47015380859375,-78.00236511230469
1776870188753289700,11.708289794921875,-97.17825317382812,94.95420837402344,-77.724853515625
1776870188763377700,11.718377685546875,-97.78424072265625,94.59722900390625,-78.09086608886719
1776870188773465600,11.728465576171875,-99.13426208496094,94.11154174804688,-78.99488830566406
1776870188783554600,11.738554443359375,-97.74665832519531,93.63533020019531,-77.80165100097656
1776870188793641500,11.748641357421874,-98.06565856933594,93.27113342285156,-77.4666748046875
1776870188803728600,11.758728759765624,-98.56149291992188,93.24031066894531,-77.55503845214844
1776870188813815600,11.768815673828126,-98.64700317382812,93.03929138183594,-76.99270629882812
1776870188823901700,11.778901611328125,-99.15029907226562,92.57083129882812,-76.40444946289062
1776870188833989600,11.78898974609375,-99.94987487792969,92.41574096679688,-76.29713439941406
1776870188844074800,11.79907470703125,-100.4168701171875,92.16439819335938,-75.7525634765625
1776870188854161700,11.80916162109375,-100.87474060058594,91.96952819824219,-74.80149841308594
1776870188864248800,11.819248779296874,-101.37800598144531,91.78932189941406,-74.15968322753906
1776870188874335700,11.829335693359376,-101.47164916992188,91.34738159179688,-73.26962280273438
1776870188884421600,11.839421630859375,-101.87110900878906,91.26683044433594,-72.74868774414062
1776870188894507500,11.849507568359375,-102.16802978515625,90.85298156738281,-71.84568786621094
1776870188904595700,11.859595703125,-102.20335388183594,90.47117614746094,-71.45195007324219
1776870188914682400,11.869682373046874,-102.45997619628906,90.06953430175781,-71.36569213867188
1776870188924768500,11.8797685546875,-103.12052917480469,89.6541748046875,-71.08102416992188
1776870188934854400,11.8898544921875,-103.11360168457031,89.20390319824219,-70.36882019042969
1776870188944941600,11.899941650390625,-104.03054809570312,88.84898376464844,-70.43052673339844
1776870188955027500,11.91002734375,-104.34428405761719,88.08889770507812,-69.61274719238281
1776870188965114600,11.920114501953124,-104.23333740234375,87.38995361328125,-68.84909057617188
1776870188975201500,11.930201416015626,-105.15142822265625,86.70005798339844,-68.17633056640625
1776870188985288700,11.940288818359376,-105.63449096679688,85.74562072753906,-67.80799865722656
1776870188995376600,11.950376708984376,-105.92201232910156,84.98347473144531,-67.1944580078125
1776870189005464600,11.960464599609375,-107.63772583007812,84.17498779296875,-67.31802368164062
1776870189015553500,11.970553466796876,-107.55867004394531,83.39129638671875,-66.44590759277344
1776870189025640400,11.980640380859375,-107.59555053710938,82.58885192871094,-66.01385498046875
1776870189035727600,11.9907275390625,-107.94172668457031,81.85273742675781,-65.94479370117188
1776870189045814500,12.000814453125,-108.425537109375,80.92129516601562,-65.71279907226562
1776870189055902500,12.01090234375,-108.53761291503906,80.12944030761719,-65.01422119140625
1776870189065988600,12.020988525390624,-108.96502685546875,78.75227355957031,-64.8272705078125
1776870189076074500,12.031074462890626,-109.73759460449219,77.79507446289062,-65.32254028320312
1776870189086160400,12.041160400390625,-110.41719055175781,76.64300537109375,-65.45697021484375
1776870189096248300,12.051248291015625,-110.43539428710938,75.40234375,-65.35350036621094
1776870189106335500,12.06133544921875,-110.63015747070312,74.57565307617188,-65.27107238769531
1776870189116420600,12.071420654296874,-110.66213989257812,73.3494873046875,-65.51741027832031
1776870189126507500,12.081507568359376,-111.04661560058594,72.34542846679688,-65.70989990234375
1776870189136593700,12.09159375,-110.08958435058594,71.36558532714844,-65.00387573242188
1776870189146679300,12.10167919921875,-110.86174011230469,70.23780822753906,-65.74920654296875
1776870189156766500,12.111766357421875,-111.64335632324219,69.09397888183594,-66.23670959472656
1776870189166854700,12.121854736328125,-111.93338012695312,68.15440368652344,-66.43101501464844
1776870189176942600,12.131942626953125,-111.62445068359375,67.17755126953125,-66.20672607421875
1776870189187029500,12.142029541015624,-110.83567810058594,66.14524841308594,-65.6129150390625
1776870189197116700,12.15211669921875,-111.07606506347656,64.91914367675781,-65.61573791503906
1776870189207204600,12.16220458984375,-111.61347961425781,63.89677429199219,-66.19932556152344
1776870189217292500,12.17229248046875,-111.1162109375,62.90873718261719,-65.9749755859375
1776870189227380500,12.18238037109375,-110.22283935546875,62.012481689453125,-65.72084045410156
1776870189237467600,12.192467529296875,-111.03514099121094,61.100433349609375,-66.25189208984375
1776870189247554600,12.202554443359375,-110.59278869628906,60.45747375488281,-65.99317932128906
1776870189257641500,12.212641357421875,-110.82594299316406,59.442047119140625,-66.06039428710938
1776870189267730400,12.22273046875,-110.31069946289062,58.85917663574219,-65.62648010253906
1776870189277818400,12.232818359375,-109.81011962890625,58.17332458496094,-65.71163940429688
1776870189287906300,12.24290625,-109.66238403320312,57.776580810546875,-65.62657165527344
1776870189297994500,12.252994384765625,-109.35025024414062,57.206390380859375,-65.71328735351562
1776870189308082700,12.263082763671875,-109.940673828125,56.64276123046875,-66.38287353515625
1776870189318169600,12.273169677734375,-109.32034301757812,56.25077819824219,-66.0943603515625
1776870189328256500,12.283256591796874,-109.03157043457031,55.9326171875,-65.88510131835938
1776870189338344400,12.293344482421874,-108.32061767578125,55.65650939941406,-65.52279663085938
1776870189348431600,12.303431640625,-109.19664001464844,55.29499816894531,-66.03585815429688
1776870189358519600,12.31351953125,-109.34970092773438,55.39158630371094,-66.29183959960938
1776870189368606500,12.3236064453125,-108.27456665039062,55.34468078613281,-65.67803955078125
1776870189378694700,12.333694580078125,-108.87257385253906,55.59480285644531,-66.14218139648438
1776870189388782600,12.343782470703125,-108.91305541992188,55.745330810546875,-66.06117248535156
1776870189398869500,12.353869384765625,-108.95834350585938,56.156982421875,-66.00843811035156
1776870189408955600,12.36395556640625,-108.69839477539062,56.24617004394531,-65.72442626953125
1776870189419042600,12.37404248046875,-108.85629272460938,56.97357177734375,-65.75765991210938
1776870189429129700,12.384129638671874,-109.78271484375,57.38124084472656,-66.50932312011719
1776870189439217700,12.3942177734375,-109.37744140625,57.89997863769531,-65.96138000488281
1776870189449304600,12.4043046875,-109.31765747070312,58.527496337890625,-65.81364440917969
1776870189459392500,12.414392578125,-110.41378784179688,58.97639465332031,-66.36068725585938
1776870189469480400,12.42448046875,-110.53541564941406,60.061431884765625,-66.74032592773438
1776870189479568400,12.434568359375,-110.277587890625,60.71299743652344,-66.03202819824219
1776870189489656600,12.444656494140625,-110.92350769042969,61.8336181640625,-66.39094543457031
1776870189499743500,12.454743408203125,-111.3138427734375,62.52757263183594,-66.55136108398438
1776870189509830400,12.464830322265625,-110.87437438964844,63.2513427734375,-66.12895202636719
1776870189519917600,12.47491748046875,-110.41169738769531,64.05207824707031,-65.88142395019531
1776870189530005500,12.485005615234375,-110.70870971679688,64.83039855957031,-66.29225158691406
1776870189540092400,12.495092529296874,-110.49623107910156,65.8017578125,-66.1817626953125
1776870189550180400,12.505180419921874,-110.00813293457031,66.64608764648438,-65.81471252441406
1776870189560269600,12.51526953125,-110.46665954589844,67.51530456542969,-66.1793212890625
1776870189570358500,12.525358642578125,-110.14750671386719,68.12774658203125,-66.26544189453125
1776870189580445400,12.535445556640624,-110.04159545898438,69.24946594238281,-66.28981018066406
1776870189590532600,12.54553271484375,-109.66474914550781,70.26457214355469,-66.05377197265625
1776870189600620500,12.55562060546875,-110.01211547851562,71.33047485351562,-66.57136535644531
1776870189610706700,12.565706787109375,-110.72138977050781,71.78852844238281,-66.85908508300781
1776870189620792300,12.575792236328125,-109.40019226074219,72.70938110351562,-66.04475402832031
1776870189630880500,12.585880615234375,-109.61648559570312,73.55323791503906,-66.38288879394531
1776870189640967700,12.5959677734375,-109.543212890625,74.35710144042969,-66.44664001464844
1776870189651054600,12.6060546875,-110.00241088867188,75.1651611328125,-66.67057800292969
1776870189661143600,12.6161435546875,-109.46151733398438,75.86480712890625,-66.31980895996094
1776870189671231500,12.6262314453125,-109.40579223632812,76.72357177734375,-66.33883666992188
1776870189681319400,12.6363193359375,-108.99603271484375,77.8985595703125,-65.9508056640625
1776870189691407400,12.646407470703124,-108.15261840820312,78.73738098144531,-65.55325317382812
1776870189701492500,12.656492431640626,-108.05448913574219,79.79708862304688,-65.77879333496094
1776870189711579600,12.66657958984375,-107.53642272949219,80.39706420898438,-65.44607543945312
1776870189721666600,12.67666650390625,-108.08538818359375,81.04716491699219,-65.91775512695312
1776870189731754500,12.68675439453125,-107.46063232421875,81.73799133300781,-65.75466918945312
1776870189741840600,12.696840576171875,-107.08772277832031,82.53262329101562,-65.65766906738281
1776870189751928600,12.706928466796874,-106.35260009765625,83.26318359375,-65.38186645507812
1776870189762015500,12.717015380859374,-106.576416015625,83.94650268554688,-66.04547119140625
1776870189772101400,12.727101318359376,-105.91450500488281,84.74287414550781,-66.02439880371094
1776870189782188300,12.737188232421875,-105.67939758300781,85.22245788574219,-66.32852172851562
1776870189792275500,12.747275390625,-105.39913940429688,86.07374572753906,-66.71170043945312
1776870189802362400,12.7573623046875,-104.89820861816406,86.708984375,-66.62165832519531
1776870189812450300,12.7674501953125,-104.49948120117188,87.14501953125,-66.58042907714844
1776870189822539500,12.77753955078125,-104.51753234863281,87.61116027832031,-66.99385070800781
1776870189832628500,12.78762841796875,-103.79615783691406,88.02143859863281,-66.89564514160156
1776870189842716400,12.79771630859375,-103.70304870605469,88.28755187988281,-67.41488647460938
1776870189852805600,12.8078056640625,-104.05397033691406,88.84489440917969,-68.361083984375
1776870189862894600,12.81789453125,-103.72036743164062,89.44024658203125,-68.45367431640625
1776870189872982500,12.827982421875,-102.91218566894531,89.54197692871094,-68.63986206054688
1776870189883071500,12.838071533203125,-102.83544921875,90.01148986816406,-68.97381591796875
1776870189893160700,12.84816064453125,-103.16098022460938,90.3133544921875,-69.95841979980469
1776870189903249000,12.858248779296876,-102.16403198242188,90.61488342285156,-69.64886474609375
1776870189913336800,12.8683369140625,-102.49966430664062,90.79817199707031,-70.20101928710938
1776870189923424800,12.8784248046875,-102.24150085449219,91.31184387207031,-70.56288146972656
1776870189933512700,12.8885126953125,-101.33308410644531,91.87493896484375,-70.44496154785156
1776870189943599600,12.898599609375,-101.01307678222656,92.07351684570312,-71.15353393554688
1776870189953687600,12.9086875,-101.40719604492188,92.11434936523438,-71.93882751464844
1776870189963775700,12.918775634765625,-101.02290344238281,92.31709289550781,-72.10382080078125
1776870189973861600,12.928861572265625,-100.79373168945312,92.92631530761719,-72.57791137695312
1776870189983948800,12.93894873046875,-100.16328430175781,93.31376647949219,-72.66232299804688
1776870189994034700,12.94903466796875,-100.3809814453125,93.54878234863281,-73.44624328613281
1776870190004118800,12.959118896484375,-100.05424499511719,93.83448791503906,-73.52885437011719
1776870190014205700,12.969205810546875,-98.70103454589844,94.59910583496094,-72.91574096679688
1776870190024292600,12.979292724609374,-99.75517272949219,94.463134765625,-73.93690490722656
1776870190034379800,12.9893798828125,-98.41183471679688,94.94065856933594,-73.57034301757812
1776870190044467700,12.9994677734375,-98.36360168457031,95.18867492675781,-74.40907287597656
1776870190054556700,13.009556640625,-98.03584289550781,95.50927734375,-74.6297607421875
1776870190064646000,13.01964599609375,-97.11900329589844,95.96914672851562,-74.75602722167969
1776870190074733800,13.02973388671875,-97.7393798828125,96.352783203125,-75.78398132324219
1776870190084821800,13.03982177734375,-97.00395202636719,96.70127868652344,-75.65983581542969
